##drops=0,overflows=0,time_per_sample=0.000305621,start_range=0.000068,end_range=0.000030
#time,accel_x,accel_y,accel_z
357.801465,9963.556400,0.000000,0.000000
357.801771,10042.009600,0.000000,-156.906400
357.802077,9963.556400,0.000000,0.000000
357.802382,10042.009600,78.453200,0.000000
357.802688,10042.009600,0.000000,0.000000
357.802994,10042.009600,0.000000,-549.172400
357.803299,10669.635200,0.000000,-1176.798000
357.803605,9963.556400,392.266000,-2118.236400
357.803910,9728.196800,470.719200,-2745.862000
357.804216,9492.837200,313.812800,-3687.300400
357.804522,8786.758400,470.719200,-4471.832400
357.804827,9492.837200,392.266000,-4785.645200
357.805133,9414.384000,-313.812800,-4158.019600
357.805439,9571.290400,-549.172400,-3216.581200
357.805744,10042.009600,-549.172400,-2981.221600
357.806050,10277.369200,-313.812800,-2824.315200
357.806355,10277.369200,392.266000,-3687.300400
357.806661,9963.556400,1255.251200,-4550.285600
357.806967,10042.009600,1412.157600,-5648.630400
357.807272,9728.196800,1412.157600,-6982.334800
357.807578,9414.384000,941.438400,-7609.960400
357.807884,9414.384000,313.812800,-7923.773200
357.808189,9335.930800,-313.812800,-8159.132800
357.808495,9257.477600,-627.625600,-8237.586000
357.808800,9335.930800,-470.719200,-8316.039200
357.809106,9571.290400,-392.266000,-7923.773200
357.809412,9963.556400,78.453200,-7688.413600
357.809717,10591.182000,392.266000,-7060.788000
357.810023,10120.462800,862.985200,-8002.226400
357.810328,9963.556400,1176.798000,-9179.024400
357.810634,9728.196800,1333.704400,-8865.211600
357.810940,9963.556400,470.719200,-10120.462800
357.811245,9885.103200,549.172400,-11061.901200
357.811551,8943.664800,78.453200,-10434.275600
357.811857,10748.088400,0.000000,-10120.462800
357.812162,9414.384000,-941.438400,-10042.009600
357.812468,9806.650000,-1569.064000,-10042.009600
357.812773,7217.694400,-784.532000,-9649.743600
357.813079,10434.275600,-862.985200,-8629.852000
357.813385,11767.980000,-1176.798000,-9100.571200
357.813690,9414.384000,1882.876800,-9963.556400
357.813996,10198.916000,1255.251200,-9885.103200
357.814302,9963.556400,1569.064000,-10904.994800
357.814607,9963.556400,1569.064000,-10355.822400
357.814913,9885.103200,627.625600,-10826.541600
357.815218,9179.024400,627.625600,-10826.541600
357.815524,9335.930800,-1176.798000,-10198.916000
357.815830,9649.743600,-1176.798000,-9649.743600
357.816135,10591.182000,-549.172400,-9335.930800
357.816441,9728.196800,-784.532000,-9179.024400
357.816747,10748.088400,1412.157600,-8865.211600
357.817052,10748.088400,1804.423600,-9022.118000
357.817358,10120.462800,1490.610800,-9022.118000
357.817663,10277.369200,1804.423600,-8708.305200
357.817969,8629.852000,0.000000,-7531.507200
357.818275,15219.920800,-2745.862000,-5099.458000
357.818580,6433.162400,0.000000,-8080.679600
357.818886,11061.901200,-235.359600,-6433.162400
357.819192,9728.196800,235.359600,-5727.083600
357.819497,9963.556400,-392.266000,-4314.926000
357.819803,9335.930800,1176.798000,-3844.206800
357.820108,11218.807600,235.359600,-2902.768400
357.820414,9806.650000,0.000000,-3373.487600
357.820720,9885.103200,627.625600,-2588.955600
357.821025,10277.369200,1176.798000,-3295.034400
357.821331,10198.916000,0.000000,-2275.142800
357.821636,10042.009600,313.812800,-2196.689600
357.821942,10591.182000,-235.359600,-627.625600
357.822248,10355.822400,-862.985200,-235.359600
357.822553,9806.650000,-706.078800,313.812800
357.822859,9649.743600,0.000000,0.000000
357.823165,10120.462800,0.000000,549.172400
357.823470,9100.571200,235.359600,313.812800
357.823776,9179.024400,-627.625600,784.532000
357.824081,9728.196800,2039.783200,1725.970400
357.824387,7453.054000,941.438400,-313.812800
357.824693,11297.260800,1098.344800,1019.891600
357.824998,9728.196800,1490.610800,2275.142800
357.825304,10277.369200,392.266000,2824.315200
357.825610,10434.275600,-392.266000,3765.753600
357.825915,10120.462800,-706.078800,4079.566400
357.826221,9728.196800,-1569.064000,3765.753600
357.826526,8786.758400,-784.532000,4158.019600
357.826832,9414.384000,235.359600,4628.738800
357.827138,10983.448000,0.000000,4314.926000
357.827443,9963.556400,627.625600,4628.738800
357.827749,10512.728800,706.078800,5491.724000
357.828055,11611.073600,862.985200,6119.349600
357.828360,10904.994800,235.359600,6276.256000
357.828666,11297.260800,156.906400,6903.881600
357.828971,10120.462800,0.000000,6825.428400
357.829277,10434.275600,-313.812800,5727.083600
357.829583,9963.556400,-156.906400,6040.896400
357.829888,9414.384000,0.000000,5491.724000
357.830194,9963.556400,392.266000,4942.551600
357.830500,10120.462800,-313.812800,5727.083600
357.830805,10120.462800,549.172400,5962.443200
357.831111,10669.635200,392.266000,6511.615600
357.831416,10434.275600,0.000000,6433.162400
357.831722,9885.103200,-235.359600,6982.334800
357.832028,10198.916000,0.000000,6354.709200
357.832333,9885.103200,-235.359600,5491.724000
357.832639,10198.916000,549.172400,4707.192000
357.832944,10277.369200,0.000000,4158.019600
357.833250,9414.384000,235.359600,3530.394000
357.833556,9571.290400,313.812800,3687.300400
357.833861,9806.650000,0.000000,2981.221600
357.834167,9571.290400,313.812800,2902.768400
357.834473,10512.728800,78.453200,3530.394000
357.834778,10512.728800,-235.359600,3451.940800
357.835084,10042.009600,-627.625600,3295.034400
357.835389,10042.009600,-313.812800,2745.862000
357.835695,10669.635200,549.172400,2432.049200
357.836001,10042.009600,235.359600,1647.517200
357.836306,10512.728800,156.906400,1333.704400
357.836612,9963.556400,235.359600,941.438400
357.836918,9728.196800,-392.266000,313.812800
357.837223,9885.103200,-156.906400,0.000000
357.837529,9728.196800,-235.359600,0.000000
357.837834,10355.822400,-549.172400,0.000000
357.838140,10042.009600,-549.172400,313.812800
357.838446,9728.196800,-156.906400,0.000000
357.838751,10120.462800,-235.359600,0.000000
357.839057,10277.369200,313.812800,-784.532000
357.839363,9885.103200,627.625600,-1569.064000
357.839668,9806.650000,862.985200,-2510.502400
357.839974,9885.103200,627.625600,-3451.940800
357.840279,9257.477600,313.812800,-3451.940800
357.840585,9414.384000,235.359600,-3373.487600
357.840891,9492.837200,-549.172400,-3451.940800
357.841196,9257.477600,-1019.891600,-3216.581200
357.841502,9728.196800,-862.985200,-3138.128000
357.841807,9335.930800,-706.078800,-2981.221600
357.842113,9963.556400,-549.172400,-3216.581200
357.842419,9414.384000,-235.359600,-3687.300400
357.842724,9806.650000,1019.891600,-4393.379200
357.843030,10826.541600,706.078800,-4471.832400
357.843336,9257.477600,784.532000,-5021.004800
357.843641,9492.837200,-235.359600,-5021.004800
357.843947,10669.635200,-549.172400,-4079.566400
357.844252,9414.384000,-1882.876800,-3608.847200
357.844558,9257.477600,-2039.783200,-2432.049200
357.844864,10904.994800,0.000000,-2824.315200
357.845169,10983.448000,-235.359600,-3922.660000
357.845475,9728.196800,313.812800,-3922.660000
357.845781,10042.009600,549.172400,-4314.926000
357.846086,11454.167200,313.812800,-4001.113200
357.846392,9649.743600,235.359600,-4471.832400
357.846697,9571.290400,313.812800,-4079.566400
357.847003,10277.369200,-78.453200,-4471.832400
357.847309,9335.930800,-235.359600,-2745.862000
357.847614,10512.728800,-313.812800,-3138.128000
357.847920,9649.743600,-78.453200,-3059.674800
357.848226,9492.837200,0.000000,-2745.862000
357.848531,9885.103200,-156.906400,-3059.674800
357.848837,10042.009600,-313.812800,-2824.315200
357.849142,10042.009600,392.266000,-2745.862000
357.849448,10042.009600,392.266000,-2745.862000
357.849754,9728.196800,0.000000,-2745.862000
357.850059,9885.103200,392.266000,-2432.049200
357.850365,8002.226400,-2196.689600,-1647.517200
357.850671,8159.132800,1882.876800,-1569.064000
357.850976,12395.605600,-1804.423600,-2432.049200
357.851282,8472.945600,-235.359600,-1490.610800
357.851587,9257.477600,156.906400,-1255.251200
357.851893,10434.275600,78.453200,-1019.891600
357.852199,8472.945600,0.000000,-1019.891600
357.852504,10355.822400,470.719200,-156.906400
357.852810,10120.462800,-235.359600,-156.906400
357.853115,9963.556400,235.359600,0.000000
357.853421,10512.728800,235.359600,235.359600
357.853727,9728.196800,235.359600,78.453200
357.854032,9649.743600,862.985200,78.453200
357.854338,9728.196800,156.906400,941.438400
357.854644,10434.275600,78.453200,1569.064000
357.854949,9649.743600,156.906400,1725.970400
357.855255,9806.650000,-156.906400,1961.330000
357.855560,9728.196800,78.453200,1725.970400
357.855866,10042.009600,-156.906400,2353.596000
357.856172,9806.650000,-313.812800,1882.876800
357.856477,10042.009600,235.359600,2275.142800
357.856783,11924.886400,1412.157600,2745.862000
357.857089,9728.196800,549.172400,3059.674800
357.857394,10198.916000,1019.891600,2510.502400
357.857700,10826.541600,-392.266000,3373.487600
357.858005,10355.822400,313.812800,3530.394000
357.858311,9806.650000,0.000000,3608.847200
357.858617,9963.556400,0.000000,3295.034400
357.858922,10512.728800,0.000000,2902.768400
357.859228,9649.743600,0.000000,2667.408800
357.859534,9414.384000,706.078800,2353.596000
357.859839,10042.009600,470.719200,2510.502400
357.860145,9806.650000,549.172400,2667.408800
357.860450,10198.916000,313.812800,4314.926000
357.860756,10120.462800,0.000000,3687.300400
357.861062,10120.462800,-470.719200,3922.660000
357.861367,10591.182000,-313.812800,4236.472800
357.861673,9806.650000,0.000000,3451.940800
357.861979,10434.275600,549.172400,2902.768400
357.862284,10355.822400,313.812800,2510.502400
357.862590,9571.290400,392.266000,2353.596000
357.862895,10120.462800,627.625600,2196.689600
357.863201,10277.369200,627.625600,2510.502400
357.863507,10355.822400,-156.906400,2745.862000
357.863812,9963.556400,-862.985200,3451.940800
357.864118,9728.196800,-1255.251200,2981.221600
357.864423,11297.260800,0.000000,3216.581200
357.864729,9728.196800,235.359600,2432.049200
357.865035,9571.290400,0.000000,1569.064000
357.865340,9100.571200,1019.891600,1176.798000
357.865646,10042.009600,0.000000,1412.157600
357.865952,9806.650000,470.719200,156.906400
357.866257,10042.009600,941.438400,470.719200
357.866563,9728.196800,235.359600,0.000000
357.866868,10042.009600,-392.266000,941.438400
357.867174,9963.556400,-1176.798000,1176.798000
357.867480,9728.196800,-1255.251200,1176.798000
357.867785,11297.260800,0.000000,1255.251200
357.868091,10748.088400,0.000000,1647.517200
357.868397,9963.556400,784.532000,627.625600
357.868702,10669.635200,392.266000,0.000000
357.869008,10198.916000,1176.798000,-706.078800
357.869313,9492.837200,862.985200,-941.438400
357.869619,9963.556400,627.625600,-941.438400
357.869925,10669.635200,0.000000,-1647.517200
357.870230,9335.930800,-1804.423600,-235.359600
357.870536,8786.758400,-627.625600,-784.532000
357.870842,9885.103200,-1019.891600,-1098.344800
357.871147,8786.758400,-862.985200,-1255.251200
357.871453,10042.009600,-627.625600,-1255.251200
357.871758,9728.196800,78.453200,-1882.876800
357.872064,10355.822400,156.906400,-2275.142800
357.872370,10198.916000,862.985200,-2432.049200
357.872675,9806.650000,706.078800,-2275.142800
357.872981,9885.103200,706.078800,-2510.502400
357.873286,9963.556400,-156.906400,-1961.330000
357.873592,10042.009600,-627.625600,-1882.876800
357.873898,10042.009600,-627.625600,-1412.157600
357.874203,9963.556400,-549.172400,-1333.704400
357.874509,10198.916000,-392.266000,-1490.610800
357.874815,10512.728800,235.359600,-2510.502400
357.875120,10120.462800,156.906400,-2118.236400
357.875426,9806.650000,470.719200,-2275.142800
357.875731,9963.556400,941.438400,-2039.783200
357.876037,10120.462800,313.812800,-1804.423600
357.876343,10277.369200,706.078800,-1490.610800
357.876648,9806.650000,0.000000,-1647.517200
357.876954,10042.009600,-470.719200,-1412.157600
357.877260,9885.103200,-156.906400,-1412.157600
357.877565,9885.103200,-235.359600,-1725.970400
357.877871,9414.384000,-470.719200,-1333.704400
357.878176,9649.743600,0.000000,-1647.517200
357.878482,9022.118000,0.000000,-2118.236400
357.878788,9728.196800,627.625600,-2275.142800
357.879093,10277.369200,313.812800,-1647.517200
357.879399,9257.477600,549.172400,-1882.876800
357.879705,10277.369200,0.000000,-1725.970400
357.880010,9571.290400,-156.906400,-1725.970400
357.880316,9100.571200,-235.359600,-1255.251200
357.880621,9728.196800,0.000000,-1098.344800
357.880927,10277.369200,-470.719200,-392.266000
357.881233,9492.837200,-549.172400,-470.719200
357.881538,9728.196800,0.000000,-862.985200
357.881844,9571.290400,0.000000,-941.438400
357.882150,10591.182000,235.359600,-1019.891600
357.882455,9963.556400,0.000000,-1019.891600
357.882761,9571.290400,470.719200,-1176.798000
357.883066,9963.556400,862.985200,-78.453200
357.883372,11846.433200,0.000000,0.000000
357.883678,10042.009600,0.000000,392.266000
357.883983,9963.556400,78.453200,941.438400
357.884289,10355.822400,156.906400,627.625600
357.884594,10198.916000,-235.359600,549.172400
357.884900,9571.290400,0.000000,470.719200
357.885206,9963.556400,235.359600,156.906400
357.885511,10042.009600,392.266000,0.000000
357.885817,10591.182000,392.266000,0.000000
357.886123,10042.009600,235.359600,549.172400
357.886428,9728.196800,-156.906400,549.172400
357.886734,9335.930800,-470.719200,1255.251200
357.887039,9649.743600,-1176.798000,2510.502400
357.887345,9963.556400,-862.985200,1569.064000
357.887651,10355.822400,313.812800,1490.610800
357.887956,10434.275600,313.812800,784.532000
357.888262,9885.103200,235.359600,549.172400
357.888568,9649.743600,784.532000,0.000000
357.888873,10042.009600,1333.704400,0.000000
357.889179,10042.009600,313.812800,78.453200
357.889484,10042.009600,-156.906400,941.438400
357.889790,9963.556400,-1255.251200,1961.330000
357.890096,10042.009600,-1569.064000,2196.689600
357.890401,10277.369200,-1490.610800,2510.502400
357.890707,10355.822400,-706.078800,2353.596000
357.891013,10198.916000,-156.906400,1804.423600
357.891318,9885.103200,0.000000,1412.157600
357.891624,10591.182000,627.625600,1176.798000
357.891929,10042.009600,549.172400,941.438400
357.892235,10826.541600,392.266000,627.625600
357.892541,9885.103200,78.453200,941.438400
357.892846,9963.556400,-706.078800,1333.704400
357.893152,10042.009600,-1333.704400,1490.610800
357.893458,9257.477600,-627.625600,1098.344800
357.893763,10042.009600,-235.359600,2196.689600
357.894069,10042.009600,313.812800,1098.344800
357.894374,9963.556400,156.906400,862.985200
357.894680,9728.196800,549.172400,549.172400
357.894986,10355.822400,1255.251200,549.172400
357.895291,10591.182000,784.532000,941.438400
357.895597,10120.462800,627.625600,470.719200
357.895902,10042.009600,78.453200,1098.344800
357.896208,10120.462800,0.000000,1098.344800
357.896514,9885.103200,0.000000,1412.157600
357.896819,10042.009600,0.000000,1333.704400
357.897125,9414.384000,313.812800,313.812800
357.897431,10042.009600,549.172400,392.266000
357.897736,10277.369200,470.719200,235.359600
357.898042,9806.650000,470.719200,0.000000
357.898347,10042.009600,706.078800,-470.719200
357.898653,11061.901200,392.266000,470.719200
357.898959,9806.650000,627.625600,-470.719200
357.899264,9885.103200,156.906400,-392.266000
357.899570,9806.650000,235.359600,0.000000
357.899876,9885.103200,-235.359600,0.000000
357.900181,9335.930800,-941.438400,-706.078800
357.900487,10277.369200,0.000000,-392.266000
357.900792,9963.556400,470.719200,-784.532000
357.901098,9571.290400,156.906400,-941.438400
357.901404,9963.556400,0.000000,-1098.344800
357.901709,9963.556400,706.078800,-1569.064000
357.902015,9100.571200,470.719200,-1333.704400
357.902321,10591.182000,-627.625600,-706.078800
357.902626,9963.556400,-313.812800,-313.812800
357.902932,10042.009600,-313.812800,-470.719200
357.903237,10042.009600,-1098.344800,0.000000
357.903543,9728.196800,-313.812800,-470.719200
357.903849,10042.009600,0.000000,-1255.251200
357.904154,10434.275600,0.000000,-1412.157600
357.904460,9806.650000,235.359600,-1961.330000
357.904765,10042.009600,0.000000,-1569.064000
357.905071,9728.196800,941.438400,-2510.502400
357.905377,10904.994800,627.625600,-2196.689600
357.905682,9963.556400,0.000000,-1882.876800
357.905988,9571.290400,-1019.891600,-1725.970400
357.906294,10042.009600,-862.985200,-1412.157600
357.906599,10512.728800,0.000000,-1176.798000
357.906905,9885.103200,-313.812800,-1098.344800
357.907210,9963.556400,-392.266000,-1098.344800
357.907516,10198.916000,0.000000,-1255.251200
357.907822,10042.009600,627.625600,-1725.970400
357.908127,9728.196800,784.532000,-2510.502400
357.908433,9885.103200,-392.266000,-1725.970400
357.908739,9806.650000,862.985200,-1255.251200
357.909044,9492.837200,156.906400,-2275.142800
357.909350,9728.196800,-392.266000,-1647.517200
357.909655,9335.930800,-392.266000,-1255.251200
357.909961,10591.182000,-862.985200,-1019.891600
357.910267,9257.477600,-627.625600,-1019.891600
357.910572,10042.009600,0.000000,-784.532000
357.910878,9728.196800,235.359600,-706.078800
357.911184,10669.635200,1019.891600,-862.985200
357.911489,10904.994800,2196.689600,-627.625600
357.911795,10355.822400,784.532000,-392.266000
357.912100,10669.635200,549.172400,-706.078800
357.912406,10198.916000,313.812800,-549.172400
357.912712,11140.354400,78.453200,0.000000
357.913017,9806.650000,-392.266000,0.000000
357.913323,9885.103200,-392.266000,78.453200
357.913629,9885.103200,-706.078800,-313.812800
357.913934,10120.462800,-392.266000,235.359600
357.914240,10042.009600,0.000000,-1255.251200
357.914545,10120.462800,1019.891600,0.000000
357.914851,10669.635200,1019.891600,-235.359600
357.915157,10042.009600,862.985200,-392.266000
357.915462,9492.837200,549.172400,-313.812800
357.915768,9492.837200,0.000000,0.000000
357.916073,9728.196800,-470.719200,1255.251200
357.916379,9335.930800,-1098.344800,313.812800
357.916685,9885.103200,-784.532000,549.172400
357.916990,10042.009600,-313.812800,862.985200
357.917296,10042.009600,0.000000,941.438400
357.917602,11061.901200,156.906400,706.078800
357.917907,10277.369200,1255.251200,627.625600
357.918213,10277.369200,941.438400,706.078800
357.918518,10591.182000,1176.798000,627.625600
357.918824,9179.024400,313.812800,1019.891600
357.919130,10198.916000,-313.812800,1176.798000
357.919435,9649.743600,-78.453200,1490.610800
357.919741,9885.103200,-549.172400,862.985200
357.920047,10042.009600,-392.266000,1098.344800
357.920352,9414.384000,-1255.251200,1176.798000
357.920658,10748.088400,470.719200,1098.344800
357.920963,11611.073600,627.625600,1412.157600
357.921269,9022.118000,627.625600,235.359600
357.921575,10042.009600,0.000000,706.078800
357.921880,10120.462800,1019.891600,392.266000
357.922186,10198.916000,627.625600,313.812800
357.922492,9963.556400,-313.812800,941.438400
357.922797,9806.650000,-313.812800,706.078800
357.923103,10591.182000,-549.172400,862.985200
357.923408,9414.384000,-706.078800,706.078800
357.923714,9414.384000,78.453200,627.625600
357.924020,10434.275600,549.172400,0.000000
357.924325,10434.275600,706.078800,78.453200
357.924631,10042.009600,627.625600,78.453200
357.924937,10198.916000,784.532000,0.000000
357.925242,12395.605600,1647.517200,941.438400
357.925548,10983.448000,156.906400,862.985200
357.925853,8551.398800,235.359600,470.719200
357.926159,10591.182000,-313.812800,627.625600
357.926465,9571.290400,-627.625600,627.625600
357.926770,9806.650000,-392.266000,549.172400
357.927076,11061.901200,0.000000,706.078800
357.927381,9806.650000,156.906400,470.719200
357.927687,10355.822400,0.000000,235.359600
357.927993,10355.822400,78.453200,78.453200
357.928298,9806.650000,78.453200,627.625600
357.928604,10120.462800,706.078800,78.453200
357.928910,10277.369200,0.000000,0.000000
357.929215,10434.275600,-156.906400,156.906400
357.929521,10042.009600,-1176.798000,235.359600
357.929826,10826.541600,-392.266000,862.985200
357.930132,9492.837200,0.000000,156.906400
357.930438,10434.275600,-549.172400,78.453200
357.930743,10042.009600,313.812800,-627.625600
357.931049,10434.275600,78.453200,-706.078800
357.931355,9885.103200,-235.359600,-784.532000
357.931660,10198.916000,-392.266000,-549.172400
357.931966,9963.556400,-627.625600,-235.359600
357.932271,10042.009600,-862.985200,0.000000
357.932577,9571.290400,-627.625600,0.000000
357.932883,10042.009600,-1098.344800,-392.266000
357.933188,9963.556400,-784.532000,0.000000
357.933494,10042.009600,78.453200,862.985200
357.933800,10042.009600,862.985200,-784.532000
357.934105,10904.994800,78.453200,-392.266000
357.934411,10042.009600,470.719200,-470.719200
357.934716,10512.728800,0.000000,-313.812800
357.935022,10120.462800,78.453200,-313.812800
357.935328,9963.556400,-470.719200,-235.359600
357.935633,9414.384000,-313.812800,78.453200
357.935939,9885.103200,-470.719200,235.359600
357.936244,10198.916000,-470.719200,78.453200
357.936550,10669.635200,78.453200,0.000000
357.936856,8786.758400,941.438400,-627.625600
357.937161,9414.384000,784.532000,-784.532000
357.937467,9885.103200,549.172400,-1647.517200
357.937773,9414.384000,941.438400,-784.532000
357.938078,9963.556400,0.000000,-549.172400
357.938384,9885.103200,862.985200,-1176.798000
357.938689,9728.196800,-78.453200,0.000000
357.938995,10042.009600,-549.172400,0.000000
357.939301,9806.650000,0.000000,-313.812800
357.939606,10042.009600,78.453200,0.000000
357.939912,10591.182000,392.266000,-156.906400
357.940218,9963.556400,784.532000,-313.812800
357.940523,9963.556400,627.625600,-627.625600
357.940829,10198.916000,392.266000,-549.172400
357.941134,9728.196800,235.359600,392.266000
357.941440,9885.103200,-235.359600,235.359600
357.941746,9728.196800,-627.625600,0.000000
357.942051,10198.916000,-706.078800,0.000000
357.942357,9885.103200,-392.266000,0.000000
357.942663,9649.743600,-549.172400,156.906400
357.942968,9649.743600,0.000000,78.453200
357.943274,10198.916000,392.266000,-392.266000
357.943579,10042.009600,470.719200,-706.078800
357.943885,10434.275600,235.359600,-549.172400
357.944191,9885.103200,-156.906400,-235.359600
357.944496,10198.916000,0.000000,-313.812800
357.944802,9885.103200,-627.625600,0.000000
357.945108,10042.009600,78.453200,156.906400
357.945413,10669.635200,-235.359600,549.172400
357.945719,9571.290400,-156.906400,156.906400
357.946024,10512.728800,-392.266000,78.453200
357.946330,10198.916000,235.359600,235.359600
357.946636,12552.512000,78.453200,1412.157600
357.946941,9100.571200,706.078800,-627.625600
357.947247,10512.728800,235.359600,0.000000
357.947552,10591.182000,235.359600,156.906400
357.947858,9649.743600,-392.266000,0.000000
357.948164,9335.930800,-470.719200,0.000000
357.948469,10042.009600,-627.625600,156.906400
357.948775,9728.196800,-706.078800,78.453200
357.949081,9963.556400,-313.812800,156.906400
357.949386,10748.088400,627.625600,78.453200
357.949692,10120.462800,78.453200,235.359600
357.949997,9728.196800,313.812800,235.359600
357.950303,11297.260800,1176.798000,941.438400
357.950609,9806.650000,784.532000,0.000000
357.950914,10042.009600,313.812800,549.172400
357.951220,10512.728800,784.532000,470.719200
357.951526,9963.556400,-549.172400,470.719200
357.951831,9963.556400,-313.812800,313.812800
357.952137,10042.009600,-627.625600,549.172400
357.952442,9885.103200,0.000000,627.625600
357.952748,10042.009600,235.359600,784.532000
357.953054,10512.728800,0.000000,862.985200
357.953359,9728.196800,549.172400,627.625600
357.953665,10120.462800,706.078800,313.812800
357.953971,10277.369200,784.532000,470.719200
357.954276,9963.556400,627.625600,235.359600
357.954582,9649.743600,-470.719200,941.438400
357.954887,9885.103200,156.906400,784.532000
357.955193,10355.822400,-627.625600,313.812800
357.955499,10669.635200,-549.172400,627.625600
357.955804,8943.664800,235.359600,392.266000
357.956110,10277.369200,0.000000,78.453200
357.956416,10355.822400,313.812800,0.000000
357.956721,9492.837200,706.078800,0.000000
357.957027,10277.369200,706.078800,470.719200
357.957332,10512.728800,470.719200,470.719200
357.957638,10591.182000,156.906400,313.812800
357.957944,9963.556400,78.453200,549.172400
357.958249,10042.009600,-470.719200,862.985200
357.958555,10434.275600,-313.812800,235.359600
357.958860,9649.743600,0.000000,627.625600
357.959166,9885.103200,313.812800,470.719200
357.959472,10042.009600,156.906400,392.266000
357.959777,10042.009600,0.000000,470.719200
357.960083,10591.182000,0.000000,392.266000
357.960389,9571.290400,0.000000,313.812800
357.960694,10355.822400,0.000000,0.000000
357.961000,10042.009600,-470.719200,0.000000
357.961305,9335.930800,-313.812800,0.000000
357.961611,10042.009600,-470.719200,470.719200
357.961917,11061.901200,0.000000,1098.344800
357.962222,9571.290400,549.172400,235.359600
357.962528,9257.477600,-235.359600,0.000000
357.962834,10591.182000,235.359600,235.359600
357.963139,10591.182000,0.000000,156.906400
357.963445,9649.743600,78.453200,-1412.157600
357.963750,10042.009600,470.719200,-784.532000
357.964056,10355.822400,0.000000,-392.266000
357.964362,9492.837200,-235.359600,-392.266000
357.964667,9963.556400,-470.719200,-313.812800
357.964973,10434.275600,-392.266000,-470.719200
357.965279,9649.743600,0.000000,-313.812800
357.965584,9649.743600,313.812800,-235.359600
357.965890,10042.009600,235.359600,-470.719200
357.966195,10355.822400,0.000000,-1019.891600
357.966501,10042.009600,0.000000,-313.812800
357.966807,9885.103200,0.000000,-627.625600
357.967112,10198.916000,0.000000,-235.359600
357.967418,10042.009600,0.000000,-313.812800
357.967723,9963.556400,0.000000,0.000000
357.968029,10042.009600,392.266000,0.000000
357.968335,9571.290400,0.000000,-235.359600
357.968640,10042.009600,0.000000,0.000000
357.968946,10120.462800,470.719200,-470.719200
357.969252,10042.009600,313.812800,-470.719200
357.969557,10120.462800,78.453200,-549.172400
357.969863,10198.916000,-235.359600,235.359600
357.970168,9728.196800,-235.359600,0.000000
357.970474,9571.290400,0.000000,-706.078800
357.970780,9335.930800,-392.266000,-627.625600
357.971085,9728.196800,0.000000,-706.078800
357.971391,10042.009600,-235.359600,-549.172400
357.971697,9806.650000,78.453200,-706.078800
357.972002,11061.901200,1804.423600,-313.812800
357.972308,8629.852000,862.985200,-862.985200
357.972613,9571.290400,-235.359600,-706.078800
357.972919,10591.182000,0.000000,-1412.157600
357.973225,10042.009600,-235.359600,-392.266000
357.973530,9335.930800,-78.453200,-78.453200
357.973836,10591.182000,-1333.704400,0.000000
357.974142,10355.822400,-78.453200,-627.625600
357.974447,9806.650000,-941.438400,0.000000
357.974753,9414.384000,392.266000,470.719200
357.975058,10904.994800,862.985200,706.078800
357.975364,9885.103200,706.078800,-313.812800
357.975670,10591.182000,156.906400,0.000000
357.975975,10355.822400,706.078800,78.453200
357.976281,10198.916000,78.453200,784.532000
357.976587,8551.398800,1176.798000,-627.625600
357.976892,10826.541600,-549.172400,-392.266000
357.977198,9571.290400,-941.438400,784.532000
357.977503,8472.945600,784.532000,-706.078800
357.977809,10355.822400,-470.719200,-549.172400
357.978115,9649.743600,-627.625600,0.000000
357.978420,10042.009600,0.000000,156.906400
357.978726,9492.837200,235.359600,235.359600
357.979031,9806.650000,1019.891600,-549.172400
357.979337,9179.024400,78.453200,313.812800
357.979643,10198.916000,313.812800,0.000000
357.979948,9963.556400,862.985200,0.000000
357.980254,10669.635200,0.000000,235.359600
357.980560,9885.103200,-313.812800,0.000000
357.980865,10277.369200,-313.812800,235.359600
357.981171,10198.916000,0.000000,313.812800
357.981476,9963.556400,0.000000,470.719200
357.981782,10277.369200,156.906400,392.266000
357.982088,9963.556400,78.453200,235.359600
357.982393,10120.462800,470.719200,0.000000
357.982699,10042.009600,156.906400,235.359600
357.983005,9335.930800,1412.157600,0.000000
357.983310,9649.743600,-156.906400,156.906400
357.983616,9649.743600,-313.812800,0.000000
357.983921,11061.901200,0.000000,235.359600
357.984227,9728.196800,-549.172400,235.359600
357.984533,9100.571200,0.000000,-313.812800
357.984838,10042.009600,313.812800,-156.906400
357.985144,10277.369200,0.000000,0.000000
357.985450,9806.650000,235.359600,313.812800
357.985755,9728.196800,313.812800,0.000000
357.986061,10042.009600,156.906400,-313.812800
357.986366,10042.009600,0.000000,0.000000
357.986672,9414.384000,-549.172400,-313.812800
357.986978,10042.009600,470.719200,156.906400
357.987283,10826.541600,392.266000,0.000000
357.987589,9885.103200,-235.359600,0.000000
357.987895,9571.290400,-235.359600,78.453200
357.988200,10748.088400,0.000000,313.812800
357.988506,10355.822400,-392.266000,-156.906400
357.988811,9885.103200,0.000000,78.453200
357.989117,10277.369200,235.359600,-392.266000
357.989423,10277.369200,0.000000,0.000000
357.989728,9728.196800,0.000000,-235.359600
357.990034,9728.196800,-235.359600,-156.906400
357.990339,9963.556400,78.453200,0.000000
357.990645,9885.103200,-706.078800,0.000000
357.990951,9649.743600,0.000000,-313.812800
357.991256,10434.275600,470.719200,-392.266000
357.991562,9414.384000,470.719200,-78.453200
357.991868,9649.743600,-1569.064000,-392.266000
357.992173,8708.305200,78.453200,-941.438400
357.992479,10826.541600,784.532000,549.172400
357.992784,9963.556400,-862.985200,-156.906400
357.993090,10120.462800,-313.812800,0.000000
357.993396,10277.369200,156.906400,862.985200
357.993701,9885.103200,-156.906400,78.453200
357.994007,10355.822400,156.906400,392.266000
357.994313,9571.290400,313.812800,0.000000
357.994618,9885.103200,0.000000,0.000000
357.994924,10512.728800,78.453200,0.000000
357.995229,9649.743600,0.000000,-313.812800
357.995535,9571.290400,-313.812800,-235.359600
357.995841,10198.916000,78.453200,78.453200
357.996146,9571.290400,-549.172400,-784.532000
357.996452,8943.664800,470.719200,313.812800
357.996758,9649.743600,0.000000,-313.812800
357.997063,10198.916000,0.000000,0.000000
357.997369,9179.024400,313.812800,-392.266000
357.997674,10355.822400,627.625600,-392.266000
357.997980,9963.556400,235.359600,0.000000
357.998286,9335.930800,235.359600,0.000000
357.998591,10277.369200,235.359600,0.000000
357.998897,9963.556400,156.906400,0.000000
357.999202,10277.369200,156.906400,313.812800
357.999508,9728.196800,0.000000,313.812800
357.999814,10355.822400,0.000000,0.000000
358.000119,9649.743600,-313.812800,0.000000
358.000425,9649.743600,-313.812800,0.000000
358.000731,10042.009600,0.000000,0.000000
358.001036,10591.182000,156.906400,-156.906400
358.001342,10198.916000,78.453200,-627.625600
358.001647,9885.103200,0.000000,0.000000
358.001953,10198.916000,0.000000,0.000000
358.002259,9963.556400,-313.812800,-470.719200
358.002564,9257.477600,156.906400,-470.719200
358.002870,10277.369200,156.906400,-549.172400
358.003176,10198.916000,-313.812800,-1019.891600
358.003481,9885.103200,-235.359600,-784.532000
358.003787,9963.556400,0.000000,-235.359600
358.004092,10277.369200,-392.266000,-156.906400
358.004398,10355.822400,-549.172400,0.000000
358.004704,9885.103200,-313.812800,313.812800
358.005009,10120.462800,-235.359600,392.266000
358.005315,10512.728800,0.000000,313.812800
358.005621,9649.743600,-549.172400,235.359600
358.005926,10042.009600,-706.078800,706.078800
358.006232,9571.290400,78.453200,235.359600
358.006537,10042.009600,-549.172400,392.266000
358.006843,10120.462800,-941.438400,627.625600
358.007149,10198.916000,-156.906400,235.359600
358.007454,9414.384000,0.000000,156.906400
358.007760,10120.462800,470.719200,-549.172400
358.008066,9885.103200,0.000000,-706.078800
358.008371,9728.196800,706.078800,-706.078800
358.008677,9414.384000,313.812800,-392.266000
358.008982,9492.837200,470.719200,-313.812800
358.009288,10120.462800,156.906400,-235.359600
358.009594,10042.009600,-78.453200,156.906400
358.009899,9963.556400,0.000000,-313.812800
358.010205,10198.916000,784.532000,-1255.251200
358.010510,9806.650000,470.719200,-549.172400
358.010816,9963.556400,0.000000,-706.078800
358.011122,9963.556400,235.359600,549.172400
358.011427,9649.743600,-392.266000,235.359600
358.011733,10042.009600,235.359600,0.000000
358.012039,9885.103200,0.000000,313.812800
358.012344,10042.009600,-235.359600,706.078800
358.012650,9963.556400,392.266000,0.000000
358.012955,10355.822400,-156.906400,470.719200
358.013261,10042.009600,313.812800,156.906400
358.013567,9963.556400,627.625600,313.812800
358.013872,9806.650000,156.906400,0.000000
358.014178,10198.916000,549.172400,78.453200
358.014484,10120.462800,0.000000,78.453200
358.014789,9806.650000,0.000000,0.000000
358.015095,9806.650000,0.000000,78.453200
358.015400,9806.650000,-392.266000,313.812800
358.015706,10355.822400,235.359600,470.719200
358.016012,9885.103200,0.000000,-313.812800
358.016317,9728.196800,0.000000,-235.359600
358.016623,9806.650000,235.359600,0.000000
358.016929,10198.916000,0.000000,0.000000
358.017234,9885.103200,-235.359600,0.000000
358.017540,9963.556400,-235.359600,0.000000
358.017845,9728.196800,-313.812800,313.812800
358.018151,10120.462800,0.000000,156.906400
358.018457,9806.650000,0.000000,78.453200
358.018762,9257.477600,0.000000,156.906400
358.019068,9885.103200,0.000000,0.000000
358.019374,10042.009600,-313.812800,0.000000
358.019679,10042.009600,0.000000,78.453200
358.019985,8865.211600,-470.719200,-156.906400
358.020290,10277.369200,78.453200,470.719200
358.020596,10042.009600,-1569.064000,470.719200
358.020902,9963.556400,0.000000,235.359600
358.021207,9728.196800,-627.625600,156.906400
358.021513,10277.369200,470.719200,78.453200
358.021818,9649.743600,-313.812800,313.812800
358.022124,9806.650000,-470.719200,0.000000
358.022430,9257.477600,156.906400,0.000000
358.022735,10042.009600,0.000000,470.719200
358.023041,9100.571200,78.453200,-470.719200
358.023347,10277.369200,-549.172400,156.906400
358.023652,9885.103200,235.359600,78.453200
358.023958,9492.837200,235.359600,235.359600
358.024263,9963.556400,78.453200,156.906400
358.024569,9963.556400,156.906400,313.812800
358.024875,10042.009600,313.812800,78.453200
358.025180,10042.009600,78.453200,78.453200
358.025486,10042.009600,235.359600,78.453200
358.025792,10120.462800,156.906400,0.000000
358.026097,9649.743600,549.172400,-313.812800
358.026403,10198.916000,549.172400,-470.719200
358.026708,9963.556400,1098.344800,-549.172400
358.027014,10120.462800,235.359600,-862.985200
358.027320,9649.743600,-156.906400,156.906400
358.027625,10904.994800,0.000000,392.266000
358.027931,9257.477600,-78.453200,78.453200
358.028237,11218.807600,235.359600,784.532000
358.028542,10591.182000,784.532000,0.000000
358.028848,9571.290400,313.812800,392.266000
358.029153,9963.556400,0.000000,0.000000
358.029459,10042.009600,-470.719200,156.906400
358.029765,10277.369200,627.625600,78.453200
358.030070,10120.462800,627.625600,-392.266000
358.030376,11140.354400,-627.625600,470.719200
358.030681,8786.758400,78.453200,-1333.704400
358.030987,10042.009600,78.453200,-313.812800
358.031293,11061.901200,0.000000,1019.891600
358.031598,9571.290400,0.000000,-313.812800
358.031904,10277.369200,-156.906400,0.000000
358.032210,10198.916000,0.000000,0.000000
358.032515,9806.650000,0.000000,0.000000
358.032821,9963.556400,235.359600,-470.719200
358.033126,10591.182000,627.625600,-392.266000
358.033432,10042.009600,0.000000,-156.906400
358.033738,10669.635200,-156.906400,0.000000
358.034043,10198.916000,313.812800,392.266000
358.034349,9963.556400,0.000000,392.266000
358.034655,10277.369200,0.000000,-313.812800
358.034960,10120.462800,0.000000,549.172400
358.035266,9885.103200,-235.359600,313.812800
358.035571,10198.916000,0.000000,313.812800
358.035877,9963.556400,156.906400,0.000000
358.036183,9806.650000,470.719200,-1098.344800
358.036488,10512.728800,0.000000,-470.719200
358.036794,9414.384000,-392.266000,-627.625600
358.037100,9414.384000,-627.625600,-627.625600
358.037405,9649.743600,-862.985200,-627.625600
358.037711,10042.009600,-313.812800,-313.812800
358.038016,9571.290400,0.000000,-1333.704400
358.038322,9963.556400,0.000000,-156.906400
358.038628,10042.009600,235.359600,-392.266000
358.038933,10042.009600,235.359600,0.000000
358.039239,10120.462800,313.812800,-156.906400
358.039545,10826.541600,-392.266000,470.719200
358.039850,10198.916000,862.985200,78.453200
358.040156,10983.448000,0.000000,-156.906400
358.040461,9414.384000,0.000000,78.453200
358.040767,10042.009600,-627.625600,392.266000
358.041073,10983.448000,-627.625600,1098.344800
358.041378,9414.384000,-549.172400,862.985200
358.041684,10277.369200,-784.532000,470.719200
358.041989,10512.728800,-313.812800,235.359600
358.042295,10042.009600,78.453200,0.000000
358.042601,10355.822400,392.266000,-706.078800
358.042906,10355.822400,235.359600,-627.625600
358.043212,9806.650000,-706.078800,0.000000
358.043518,9414.384000,627.625600,156.906400
358.043823,9492.837200,-392.266000,-706.078800
358.044129,9649.743600,-549.172400,0.000000
358.044434,9649.743600,-235.359600,0.000000
358.044740,10355.822400,-313.812800,313.812800
358.045046,9728.196800,78.453200,0.000000
358.045351,10042.009600,706.078800,-627.625600
358.045657,9728.196800,0.000000,-706.078800
358.045963,10277.369200,78.453200,-1490.610800
358.046268,9257.477600,470.719200,-1019.891600
358.046574,9885.103200,0.000000,-1176.798000
358.046879,9963.556400,549.172400,-1255.251200
358.047185,9885.103200,-549.172400,0.000000
358.047491,9728.196800,-235.359600,0.000000
358.047796,9885.103200,156.906400,0.000000
358.048102,10042.009600,156.906400,0.000000
358.048408,9885.103200,156.906400,-392.266000
358.048713,9885.103200,706.078800,0.000000
358.049019,11375.714000,470.719200,235.359600
358.049324,10042.009600,313.812800,0.000000
358.049630,10042.009600,78.453200,-313.812800
358.049936,9885.103200,0.000000,0.000000
358.050241,9728.196800,-470.719200,0.000000
358.050547,9806.650000,0.000000,78.453200
358.050853,9335.930800,-1804.423600,706.078800
358.051158,9963.556400,-156.906400,392.266000
358.051464,9414.384000,0.000000,0.000000
358.051769,9335.930800,156.906400,-549.172400
358.052075,9100.571200,627.625600,-470.719200
358.052381,10591.182000,78.453200,-627.625600
358.052686,10355.822400,78.453200,-549.172400
358.052992,9806.650000,-156.906400,-235.359600
358.053297,9728.196800,-313.812800,-235.359600
358.053603,9963.556400,-627.625600,313.812800
358.053909,9179.024400,-392.266000,235.359600
358.054214,9728.196800,0.000000,235.359600
358.054520,10120.462800,-862.985200,941.438400
358.054826,9728.196800,78.453200,0.000000
358.055131,11218.807600,784.532000,78.453200
358.055437,10198.916000,941.438400,0.000000
358.055742,9414.384000,627.625600,-862.985200
358.056048,10042.009600,392.266000,0.000000
358.056354,10198.916000,78.453200,156.906400
358.056659,10120.462800,-627.625600,313.812800
358.056965,9963.556400,-156.906400,1019.891600
358.057271,9885.103200,-627.625600,470.719200
358.057576,10042.009600,-313.812800,0.000000
358.057882,9492.837200,0.000000,0.000000
358.058187,9649.743600,627.625600,-235.359600
358.058493,10198.916000,549.172400,235.359600
358.058799,10042.009600,313.812800,-549.172400
358.059104,9728.196800,313.812800,0.000000
358.059410,9963.556400,-313.812800,549.172400
358.059716,9885.103200,-470.719200,235.359600
358.060021,10120.462800,-706.078800,392.266000
358.060327,9728.196800,-706.078800,313.812800
358.060632,10042.009600,-235.359600,235.359600
358.060938,10120.462800,0.000000,549.172400
358.061244,9963.556400,235.359600,78.453200
358.061549,10277.369200,941.438400,235.359600
358.061855,9728.196800,1098.344800,0.000000
358.062160,10042.009600,313.812800,0.000000
358.062466,9963.556400,0.000000,0.000000
358.062772,9885.103200,-156.906400,0.000000
358.063077,10826.541600,-156.906400,1019.891600
358.063383,10277.369200,-1333.704400,1019.891600
358.063689,10042.009600,-156.906400,862.985200
358.063994,10277.369200,0.000000,156.906400
358.064300,10042.009600,549.172400,156.906400
358.064605,10042.009600,313.812800,-156.906400
358.064911,10198.916000,784.532000,-1098.344800
358.065217,10198.916000,549.172400,-313.812800
358.065522,10042.009600,313.812800,-627.625600
358.065828,9963.556400,0.000000,-627.625600
358.066134,9492.837200,0.000000,-549.172400
358.066439,9728.196800,-313.812800,-156.906400
358.066745,9492.837200,-470.719200,-313.812800
358.067050,9806.650000,-706.078800,78.453200
358.067356,10198.916000,-313.812800,-235.359600
358.067662,9963.556400,0.000000,0.000000
358.067967,10748.088400,470.719200,0.000000
358.068273,10277.369200,235.359600,0.000000
358.068579,10277.369200,470.719200,0.000000
358.068884,9885.103200,235.359600,-470.719200
358.069190,9728.196800,156.906400,-313.812800
358.069495,9728.196800,-235.359600,-784.532000
358.069801,9963.556400,-235.359600,0.000000
358.070107,9728.196800,-470.719200,0.000000
358.070412,9649.743600,-235.359600,235.359600
358.070718,9806.650000,-313.812800,313.812800
358.071024,10120.462800,0.000000,78.453200
358.071329,10434.275600,706.078800,-235.359600
358.071635,10355.822400,1412.157600,0.000000
358.071940,8943.664800,392.266000,-706.078800
358.072246,10512.728800,78.453200,-941.438400
358.072552,9414.384000,0.000000,-627.625600
358.072857,9885.103200,-235.359600,0.000000
358.073163,9414.384000,-627.625600,-784.532000
358.073468,9728.196800,-784.532000,0.000000
358.073774,9728.196800,0.000000,156.906400
358.074080,10042.009600,0.000000,78.453200
358.074385,10042.009600,470.719200,156.906400
358.074691,10198.916000,1098.344800,-392.266000
358.074997,11297.260800,862.985200,78.453200
358.075302,9885.103200,549.172400,-470.719200
358.075608,10120.462800,78.453200,-235.359600
358.075913,10669.635200,78.453200,0.000000
358.076219,10042.009600,-706.078800,313.812800
358.076525,9728.196800,-1019.891600,627.625600
358.076830,10355.822400,-1176.798000,1098.344800
358.077136,10277.369200,-784.532000,706.078800
358.077442,10669.635200,-1019.891600,1176.798000
358.077747,9335.930800,706.078800,-235.359600
358.078053,10904.994800,1176.798000,0.000000
358.078358,9885.103200,549.172400,0.000000
358.078664,9414.384000,0.000000,-392.266000
358.078970,9885.103200,78.453200,-392.266000
358.079275,10042.009600,-313.812800,-549.172400
358.079581,9414.384000,-627.625600,-156.906400
358.079887,9649.743600,-706.078800,-627.625600
358.080192,9728.196800,-156.906400,-549.172400
358.080498,9335.930800,-392.266000,-627.625600
358.080803,9335.930800,0.000000,0.000000
358.081109,9492.837200,784.532000,78.453200
358.081415,10591.182000,549.172400,-1569.064000
358.081720,9963.556400,1176.798000,-1255.251200
358.082026,9100.571200,627.625600,-78.453200
358.082332,10904.994800,-313.812800,0.000000
358.082637,9571.290400,0.000000,-313.812800
358.082943,10277.369200,-784.532000,313.812800
358.083248,9649.743600,-549.172400,313.812800
358.083554,9649.743600,-784.532000,627.625600
358.083860,10669.635200,0.000000,627.625600
358.084165,10669.635200,392.266000,627.625600
358.084471,10277.369200,392.266000,470.719200
358.084776,9963.556400,470.719200,0.000000
358.085082,10355.822400,235.359600,0.000000
358.085388,9963.556400,-78.453200,0.000000
358.085693,9414.384000,0.000000,235.359600
358.085999,9414.384000,-470.719200,0.000000
358.086305,9179.024400,-1019.891600,549.172400
358.086610,10042.009600,-1019.891600,706.078800
358.086916,9649.743600,156.906400,313.812800
358.087221,9492.837200,1098.344800,78.453200
358.087527,10512.728800,627.625600,-156.906400
358.087833,9885.103200,627.625600,-627.625600
358.088138,10277.369200,313.812800,-941.438400
358.088444,9571.290400,235.359600,-862.985200
358.088750,9963.556400,0.000000,-156.906400
358.089055,9571.290400,-627.625600,-392.266000
358.089361,9492.837200,0.000000,-313.812800
358.089666,10355.822400,-549.172400,78.453200
358.089972,9649.743600,-156.906400,-156.906400
358.090278,10355.822400,470.719200,-392.266000
358.090583,10434.275600,392.266000,-392.266000
358.090889,10355.822400,392.266000,-313.812800
358.091195,10277.369200,784.532000,-156.906400
358.091500,10042.009600,156.906400,78.453200
358.091806,10355.822400,-156.906400,862.985200
358.092111,10198.916000,-549.172400,1098.344800
358.092417,11846.433200,-235.359600,1725.970400
358.092723,9885.103200,0.000000,1176.798000
358.093028,9649.743600,-156.906400,1019.891600
358.093334,10669.635200,78.453200,1098.344800
358.093639,9179.024400,549.172400,862.985200
358.093945,10120.462800,627.625600,78.453200
358.094251,9649.743600,862.985200,-392.266000
358.094556,9963.556400,392.266000,-862.985200
358.094862,9335.930800,-156.906400,-1255.251200
358.095168,9649.743600,-549.172400,-1569.064000
358.095473,8943.664800,-941.438400,-1647.517200
358.095779,9022.118000,-470.719200,-1882.876800
358.096084,9492.837200,-784.532000,-1255.251200
358.096390,9100.571200,-627.625600,-1019.891600
358.096696,9885.103200,235.359600,-1255.251200
358.097001,10277.369200,392.266000,0.000000
358.097307,10434.275600,627.625600,470.719200
358.097613,10434.275600,627.625600,156.906400
358.097918,10748.088400,392.266000,392.266000
358.098224,10669.635200,313.812800,392.266000
358.098529,10120.462800,235.359600,549.172400
358.098835,11924.886400,78.453200,1569.064000
358.099141,11375.714000,-392.266000,627.625600
358.099446,10042.009600,0.000000,1333.704400
358.099752,10826.541600,0.000000,0.000000
358.100058,9414.384000,549.172400,470.719200
358.100363,9649.743600,0.000000,-78.453200
358.100669,10669.635200,-627.625600,392.266000
358.100974,9649.743600,470.719200,549.172400
358.101280,10120.462800,1098.344800,0.000000
358.101586,10042.009600,-313.812800,-470.719200
358.101891,9571.290400,-549.172400,-235.359600
358.102197,9100.571200,-706.078800,-470.719200
358.102503,9492.837200,-313.812800,-235.359600
358.102808,9179.024400,-470.719200,-627.625600
358.103114,9649.743600,0.000000,-156.906400
358.103419,10198.916000,549.172400,-156.906400
358.103725,10120.462800,470.719200,-549.172400
358.104031,10042.009600,941.438400,-549.172400
358.104336,10591.182000,627.625600,-235.359600
358.104642,9649.743600,706.078800,78.453200
358.104947,9806.650000,0.000000,0.000000
358.105253,10277.369200,-235.359600,0.000000
358.105559,9963.556400,-1019.891600,235.359600
358.105864,10042.009600,-784.532000,470.719200
358.106170,10434.275600,-392.266000,235.359600
358.106476,10434.275600,235.359600,549.172400
358.106781,10355.822400,392.266000,156.906400
358.107087,10042.009600,235.359600,235.359600
358.107392,10198.916000,235.359600,78.453200
358.107698,9728.196800,862.985200,0.000000
358.108004,10042.009600,0.000000,0.000000
358.108309,10042.009600,-470.719200,-392.266000
358.108615,9257.477600,-627.625600,0.000000
358.108921,9414.384000,-784.532000,0.000000
358.109226,9257.477600,-706.078800,78.453200
358.109532,9806.650000,470.719200,-313.812800
358.109837,9728.196800,235.359600,78.453200
358.110143,10277.369200,549.172400,0.000000
358.110449,9885.103200,706.078800,-392.266000
358.110754,10198.916000,706.078800,-313.812800
358.111060,9963.556400,706.078800,-1019.891600
358.111366,9728.196800,-156.906400,-156.906400
358.111671,9649.743600,78.453200,-235.359600
358.111977,10042.009600,-392.266000,0.000000
358.112282,9728.196800,-156.906400,313.812800
358.112588,10434.275600,-627.625600,313.812800
358.112894,10434.275600,156.906400,392.266000
358.113199,10042.009600,549.172400,156.906400
358.113505,10277.369200,549.172400,392.266000
358.113811,10434.275600,627.625600,470.719200
358.114116,10512.728800,706.078800,156.906400
358.114422,10042.009600,392.266000,0.000000
358.114727,9728.196800,235.359600,0.000000
358.115033,9885.103200,78.453200,156.906400
358.115339,10042.009600,-549.172400,0.000000
358.115644,9571.290400,-627.625600,-156.906400
358.115950,9492.837200,-627.625600,-235.359600
358.116255,9885.103200,156.906400,78.453200
358.116561,10120.462800,313.812800,78.453200
358.116867,10042.009600,470.719200,235.359600
358.117172,10198.916000,862.985200,-156.906400
358.117478,10512.728800,1098.344800,-549.172400
358.117784,9335.930800,392.266000,-78.453200
358.118089,10355.822400,0.000000,0.000000
358.118395,9806.650000,-313.812800,-78.453200
358.118700,9649.743600,-1725.970400,470.719200
358.119006,8551.398800,0.000000,470.719200
358.119312,10355.822400,-627.625600,313.812800
358.119617,10120.462800,-549.172400,470.719200
358.119923,10120.462800,470.719200,392.266000
358.120229,10120.462800,-235.359600,470.719200
358.120534,10042.009600,313.812800,0.000000
358.120840,10669.635200,627.625600,392.266000
358.121145,10042.009600,0.000000,0.000000
358.121451,9571.290400,-156.906400,-313.812800
358.121757,10355.822400,-1098.344800,-392.266000
358.122062,10904.994800,-941.438400,549.172400
358.122368,11532.620400,549.172400,1176.798000
358.122674,8551.398800,-313.812800,-392.266000
358.122979,10198.916000,235.359600,-313.812800
358.123285,10826.541600,862.985200,0.000000
358.123590,9492.837200,235.359600,0.000000
358.123896,10355.822400,1176.798000,313.812800
358.124202,9100.571200,941.438400,-1333.704400
358.124507,9492.837200,-313.812800,-941.438400
358.124813,9649.743600,-706.078800,-235.359600
358.125118,10042.009600,-392.266000,-235.359600
358.125424,9257.477600,-862.985200,470.719200
358.125730,9963.556400,0.000000,862.985200
358.126035,10355.822400,0.000000,313.812800
358.126341,10042.009600,78.453200,0.000000
358.126647,10120.462800,235.359600,-235.359600
358.126952,9963.556400,392.266000,627.625600
358.127258,9571.290400,784.532000,-549.172400
358.127563,9571.290400,0.000000,0.000000
358.127869,10591.182000,-470.719200,78.453200
358.128175,9806.650000,-549.172400,-156.906400
358.128480,10277.369200,-627.625600,470.719200
358.128786,9806.650000,78.453200,0.000000
358.129092,10120.462800,156.906400,235.359600
358.129397,10669.635200,470.719200,78.453200
358.129703,9885.103200,627.625600,0.000000
358.130008,9806.650000,627.625600,78.453200
358.130314,9649.743600,313.812800,-392.266000
358.130620,9492.837200,0.000000,-862.985200
358.130925,10042.009600,-156.906400,-392.266000
358.131231,9335.930800,-235.359600,-627.625600
358.131537,9885.103200,-470.719200,-1019.891600
358.131842,9806.650000,-470.719200,-627.625600
358.132148,9022.118000,-235.359600,-784.532000
358.132453,10042.009600,-156.906400,-392.266000
358.132759,10591.182000,392.266000,0.000000
358.133065,9649.743600,78.453200,0.000000
358.133370,9492.837200,549.172400,0.000000
358.133676,9414.384000,0.000000,-706.078800
358.133982,9806.650000,-627.625600,-470.719200
358.134287,10277.369200,313.812800,0.000000
358.134593,9571.290400,-156.906400,-156.906400
358.134898,10355.822400,-706.078800,0.000000
358.135204,10120.462800,-470.719200,235.359600
358.135510,9885.103200,-313.812800,0.000000
358.135815,9100.571200,-78.453200,549.172400
358.136121,10277.369200,0.000000,235.359600
358.136426,9885.103200,1176.798000,-313.812800
358.136732,11532.620400,1647.517200,313.812800
358.137038,9885.103200,392.266000,0.000000
358.137343,9100.571200,313.812800,-1098.344800
358.137649,10120.462800,0.000000,-1176.798000
358.137955,10042.009600,-627.625600,0.000000
358.138260,9257.477600,-313.812800,0.000000
358.138566,10198.916000,0.000000,0.000000
358.138871,9649.743600,0.000000,-549.172400
358.139177,10042.009600,78.453200,0.000000
358.139483,10904.994800,627.625600,0.000000
358.139788,10277.369200,1176.798000,0.000000
358.140094,10591.182000,1176.798000,0.000000
358.140400,10355.822400,784.532000,-235.359600
358.140705,9806.650000,0.000000,313.812800
358.141011,9963.556400,-784.532000,549.172400
358.141316,10277.369200,-1019.891600,706.078800
358.141622,9492.837200,-470.719200,862.985200
358.141928,10826.541600,-706.078800,1333.704400
358.142233,10512.728800,235.359600,1019.891600
358.142539,10120.462800,0.000000,1490.610800
358.142845,10355.822400,549.172400,549.172400
358.143150,9806.650000,470.719200,0.000000
358.143456,9963.556400,235.359600,-235.359600
358.143761,9335.930800,156.906400,-313.812800
358.144067,9492.837200,-235.359600,-392.266000
358.144373,9649.743600,-862.985200,0.000000
358.144678,9963.556400,0.000000,0.000000
358.144984,9885.103200,0.000000,-549.172400
358.145290,9885.103200,-470.719200,-392.266000
358.145595,9571.290400,470.719200,-549.172400
358.145901,9571.290400,235.359600,0.000000
358.146206,9571.290400,706.078800,-627.625600
358.146512,10198.916000,470.719200,-549.172400
358.146818,9728.196800,0.000000,0.000000
358.147123,9806.650000,0.000000,0.000000
358.147429,10826.541600,-313.812800,0.000000
358.147734,10042.009600,-706.078800,235.359600
358.148040,9885.103200,0.000000,313.812800
358.148346,10042.009600,-156.906400,549.172400
358.148651,10120.462800,-156.906400,627.625600
358.148957,10120.462800,0.000000,784.532000
358.149263,10512.728800,0.000000,784.532000
358.149568,10277.369200,0.000000,549.172400
358.149874,10277.369200,-470.719200,549.172400
358.150179,10198.916000,-156.906400,313.812800
358.150485,9885.103200,-156.906400,0.000000
358.150791,9885.103200,-392.266000,156.906400
358.151096,9571.290400,0.000000,-470.719200
358.151402,9022.118000,-392.266000,-392.266000
358.151708,9728.196800,-706.078800,0.000000
358.152013,10042.009600,-235.359600,-313.812800
358.152319,9414.384000,-392.266000,-313.812800
358.152624,9885.103200,235.359600,0.000000
358.152930,9571.290400,549.172400,-470.719200
358.153236,10042.009600,156.906400,-470.719200
358.153541,9728.196800,78.453200,0.000000
358.153847,10042.009600,78.453200,-470.719200
358.154153,10277.369200,0.000000,156.906400
358.154458,10198.916000,-549.172400,0.000000
358.154764,8786.758400,-156.906400,-313.812800
358.155069,9963.556400,-627.625600,0.000000
358.155375,9806.650000,-313.812800,549.172400
358.155681,10042.009600,-313.812800,156.906400
358.155986,10434.275600,470.719200,313.812800
358.156292,10355.822400,0.000000,470.719200
358.156597,10042.009600,313.812800,0.000000
358.156903,10277.369200,156.906400,0.000000
358.157209,9571.290400,156.906400,-235.359600
358.157514,9885.103200,235.359600,-627.625600
358.157820,9728.196800,-784.532000,235.359600
358.158126,8943.664800,235.359600,-1019.891600
358.158431,11846.433200,-235.359600,-313.812800
358.158737,8708.305200,0.000000,-313.812800
358.159042,9806.650000,0.000000,0.000000
358.159348,10198.916000,235.359600,-392.266000
358.159654,9649.743600,706.078800,-784.532000
358.159959,9885.103200,549.172400,-313.812800
358.160265,10277.369200,784.532000,-862.985200
358.160571,9414.384000,156.906400,-706.078800
358.160876,10042.009600,0.000000,-313.812800
358.161182,9571.290400,-706.078800,0.000000
358.161487,10042.009600,-313.812800,470.719200
358.161793,9806.650000,0.000000,-706.078800
358.162099,9728.196800,156.906400,-313.812800
358.162404,10042.009600,78.453200,-235.359600
358.162710,10748.088400,470.719200,0.000000
358.163016,9885.103200,235.359600,-392.266000
358.163321,9885.103200,156.906400,0.000000
358.163627,10277.369200,156.906400,0.000000
358.163932,9571.290400,156.906400,-235.359600
358.164238,9806.650000,-156.906400,0.000000
358.164544,10434.275600,-627.625600,156.906400
358.164849,9963.556400,-392.266000,235.359600
358.165155,8786.758400,0.000000,0.000000
358.165461,10120.462800,0.000000,156.906400
358.165766,9728.196800,-313.812800,-470.719200
358.166072,9257.477600,0.000000,-470.719200
358.166377,10355.822400,156.906400,-313.812800
358.166683,10042.009600,0.000000,-313.812800
358.166989,9963.556400,-235.359600,-156.906400
358.167294,10042.009600,392.266000,-627.625600
358.167600,11218.807600,-2196.689600,0.000000
358.167905,9335.930800,549.172400,0.000000
358.168211,8943.664800,78.453200,-470.719200
358.168517,9414.384000,862.985200,-1176.798000
358.168822,9885.103200,0.000000,-235.359600
358.169128,9963.556400,78.453200,0.000000
358.169434,9414.384000,549.172400,706.078800
358.169739,10512.728800,-235.359600,470.719200
358.170045,10512.728800,-627.625600,470.719200
358.170350,10198.916000,0.000000,313.812800
358.170656,10277.369200,0.000000,156.906400
358.170962,10355.822400,78.453200,784.532000
358.171267,8708.305200,0.000000,-235.359600
358.171573,11375.714000,-313.812800,1490.610800
358.171879,11218.807600,-784.532000,1490.610800
358.172184,9963.556400,-78.453200,862.985200
358.172490,8629.852000,-235.359600,784.532000
358.172795,11611.073600,-392.266000,0.000000
358.173101,10591.182000,156.906400,78.453200
358.173407,8865.211600,0.000000,-78.453200
358.173712,10198.916000,313.812800,0.000000
358.174018,9492.837200,0.000000,-941.438400
358.174324,9728.196800,78.453200,156.906400
358.174629,9022.118000,0.000000,-549.172400
358.174935,9179.024400,-313.812800,-313.812800
358.175240,8237.586000,392.266000,-392.266000
358.175546,9806.650000,-156.906400,0.000000
358.175852,9414.384000,-627.625600,156.906400
358.176157,10198.916000,-784.532000,862.985200
358.176463,10591.182000,0.000000,549.172400
358.176769,10277.369200,627.625600,235.359600
358.177074,9963.556400,627.625600,156.906400
358.177380,9963.556400,470.719200,156.906400
358.177685,9963.556400,0.000000,78.453200
358.177991,10512.728800,549.172400,313.812800
358.178297,9806.650000,235.359600,549.172400
358.178602,10198.916000,-627.625600,862.985200
358.178908,9963.556400,-470.719200,235.359600
358.179213,9963.556400,-313.812800,706.078800
358.179519,10120.462800,-235.359600,627.625600
358.179825,10042.009600,313.812800,313.812800
358.180130,9649.743600,706.078800,156.906400
358.180436,10120.462800,313.812800,0.000000
358.180742,10198.916000,156.906400,-313.812800
358.181047,9571.290400,0.000000,0.000000
358.181353,9806.650000,470.719200,0.000000
358.181658,9571.290400,-313.812800,470.719200
358.181964,9885.103200,-549.172400,235.359600
358.182270,9885.103200,-470.719200,78.453200
358.182575,9963.556400,0.000000,78.453200
358.182881,9492.837200,-313.812800,-313.812800
358.183187,9885.103200,549.172400,-470.719200
358.183492,10591.182000,0.000000,-470.719200
358.183798,10748.088400,156.906400,-470.719200
358.184103,9179.024400,235.359600,-470.719200
358.184409,10198.916000,549.172400,0.000000
358.184715,10355.822400,0.000000,313.812800
358.185020,9806.650000,0.000000,156.906400
358.185326,10277.369200,-470.719200,-470.719200
358.185632,10042.009600,-392.266000,0.000000
358.185937,10042.009600,-313.812800,0.000000
358.186243,10042.009600,549.172400,0.000000
358.186548,10355.822400,862.985200,-392.266000
358.186854,10042.009600,549.172400,-313.812800
358.187160,10198.916000,-313.812800,-313.812800
358.187465,9571.290400,-549.172400,-313.812800
358.187771,9728.196800,-392.266000,0.000000
358.188076,10042.009600,-235.359600,235.359600
358.188382,9414.384000,-313.812800,156.906400
358.188688,10042.009600,0.000000,235.359600
358.188993,10120.462800,-470.719200,0.000000
358.189299,9963.556400,78.453200,-156.906400
358.189605,9649.743600,470.719200,-470.719200
358.189910,9649.743600,0.000000,-549.172400
358.190216,10355.822400,0.000000,-1569.064000
358.190521,8865.211600,78.453200,-392.266000
358.190827,9806.650000,-627.625600,-470.719200
358.191133,9963.556400,-941.438400,706.078800
358.191438,10042.009600,-392.266000,392.266000
358.191744,10826.541600,-392.266000,1019.891600
358.192050,10512.728800,313.812800,1098.344800
358.192355,10983.448000,470.719200,1019.891600
358.192661,10983.448000,1019.891600,941.438400
358.192966,10434.275600,1176.798000,470.719200
358.193272,10355.822400,941.438400,156.906400
358.193578,10042.009600,235.359600,78.453200
358.193883,9963.556400,0.000000,78.453200
358.194189,9414.384000,-549.172400,-235.359600
358.194495,10120.462800,-1098.344800,0.000000
358.194800,9649.743600,-784.532000,-392.266000
358.195106,9100.571200,-549.172400,-549.172400
358.195411,9257.477600,-470.719200,-1176.798000
358.195717,9022.118000,0.000000,-1725.970400
358.196023,9885.103200,470.719200,-2118.236400
358.196328,9179.024400,549.172400,-2745.862000
358.196634,9022.118000,-941.438400,-2275.142800
358.196940,9335.930800,-392.266000,-1882.876800
358.197245,10434.275600,156.906400,-1176.798000
358.197551,8708.305200,-1098.344800,-1255.251200
358.197856,10042.009600,156.906400,-313.812800
358.198162,10042.009600,-549.172400,-392.266000
358.198468,10198.916000,-313.812800,392.266000
358.198773,11061.901200,78.453200,627.625600
358.199079,10826.541600,392.266000,784.532000
358.199384,10198.916000,627.625600,392.266000
358.199690,11375.714000,1019.891600,313.812800
358.199996,10277.369200,0.000000,627.625600
358.200301,9885.103200,-313.812800,156.906400
358.200607,10198.916000,-235.359600,470.719200
358.200913,9335.930800,-1098.344800,549.172400
358.201218,9649.743600,-1255.251200,784.532000
358.201524,9649.743600,78.453200,862.985200
358.201829,9335.930800,0.000000,-627.625600
358.202135,9806.650000,235.359600,-392.266000
358.202441,9806.650000,706.078800,-706.078800
358.202746,10512.728800,706.078800,-706.078800
358.203052,9335.930800,706.078800,-1490.610800
358.203358,9649.743600,235.359600,-1176.798000
358.203663,9335.930800,313.812800,-784.532000
358.203969,9649.743600,0.000000,-313.812800
358.204274,9728.196800,156.906400,-784.532000
358.204580,10198.916000,-706.078800,235.359600
358.204886,10198.916000,0.000000,470.719200
358.205191,10042.009600,156.906400,784.532000
358.205497,10355.822400,392.266000,392.266000
358.205803,10669.635200,313.812800,392.266000
358.206108,10198.916000,941.438400,235.359600
358.206414,10042.009600,549.172400,-313.812800
358.206719,10277.369200,78.453200,0.000000
358.207025,9728.196800,-627.625600,0.000000
358.207331,9885.103200,-941.438400,941.438400
358.207636,9963.556400,-1176.798000,392.266000
358.207942,9963.556400,-156.906400,862.985200
358.208248,10198.916000,-235.359600,0.000000
358.208553,10042.009600,706.078800,0.000000
358.208859,9885.103200,627.625600,-313.812800
358.209164,11061.901200,784.532000,-392.266000
358.209470,10120.462800,862.985200,-862.985200
358.209776,9571.290400,549.172400,-392.266000
358.210081,10120.462800,0.000000,78.453200
358.210387,9963.556400,-549.172400,549.172400
358.210692,9414.384000,-1333.704400,0.000000
358.210998,10277.369200,-1176.798000,313.812800
358.211304,10120.462800,-706.078800,862.985200
358.211609,9963.556400,0.000000,706.078800
358.211915,10512.728800,549.172400,862.985200
358.212221,9885.103200,1333.704400,941.438400
358.212526,9963.556400,235.359600,470.719200
358.212832,10277.369200,0.000000,313.812800
358.213137,10042.009600,313.812800,0.000000
358.213443,9492.837200,-313.812800,0.000000
358.213749,10120.462800,-392.266000,-235.359600
358.214054,9963.556400,0.000000,313.812800
358.214360,9963.556400,-862.985200,313.812800
358.214666,8786.758400,-235.359600,-156.906400
358.214971,10434.275600,784.532000,0.000000
358.215277,10042.009600,1412.157600,0.000000
358.215582,9649.743600,1333.704400,-627.625600
358.215888,9963.556400,862.985200,-706.078800
358.216194,9963.556400,235.359600,-392.266000
358.216499,9649.743600,156.906400,-706.078800
358.216805,10277.369200,-862.985200,470.719200
358.217111,9806.650000,-156.906400,156.906400
358.217416,9571.290400,-470.719200,0.000000
358.217722,10120.462800,-627.625600,549.172400
358.218027,9414.384000,0.000000,549.172400
358.218333,10277.369200,0.000000,235.359600
358.218639,10434.275600,784.532000,78.453200
358.218944,9885.103200,1098.344800,-784.532000
358.219250,10277.369200,627.625600,-627.625600
358.219555,9414.384000,1098.344800,-784.532000
358.219861,10042.009600,235.359600,-235.359600
358.220167,10355.822400,235.359600,-470.719200
358.220472,9335.930800,-627.625600,0.000000
358.220778,10277.369200,-313.812800,235.359600
358.221084,10904.994800,-470.719200,706.078800
358.221389,9649.743600,549.172400,0.000000
358.221695,10120.462800,706.078800,-313.812800
358.222000,10120.462800,-1255.251200,235.359600
358.222306,10826.541600,549.172400,-862.985200
358.222612,11218.807600,1176.798000,-1176.798000
358.222917,9335.930800,156.906400,-1176.798000
358.223223,9492.837200,0.000000,-706.078800
358.223529,10120.462800,-549.172400,-235.359600
358.223834,9571.290400,-862.985200,0.000000
358.224140,10042.009600,-784.532000,0.000000
358.224445,10042.009600,-549.172400,0.000000
358.224751,9806.650000,392.266000,-313.812800
358.225057,10904.994800,941.438400,-1019.891600
358.225362,9257.477600,627.625600,-1333.704400
358.225668,9885.103200,627.625600,-1098.344800
358.225974,9963.556400,549.172400,-1490.610800
358.226279,9649.743600,-313.812800,-78.453200
358.226585,11218.807600,-784.532000,392.266000
358.226890,10042.009600,-235.359600,235.359600
358.227196,9806.650000,-862.985200,706.078800
358.227502,9728.196800,-1019.891600,784.532000
358.227807,10198.916000,0.000000,313.812800
358.228113,10277.369200,862.985200,0.000000
358.228419,10198.916000,1333.704400,0.000000
358.228724,9963.556400,862.985200,-470.719200
358.229030,9728.196800,706.078800,-941.438400
358.229335,10434.275600,235.359600,-549.172400
358.229641,10198.916000,0.000000,-156.906400
358.229947,9728.196800,-862.985200,0.000000
358.230252,9728.196800,-1176.798000,470.719200
358.230558,10198.916000,-549.172400,627.625600
358.230863,9728.196800,-156.906400,313.812800
358.231169,10120.462800,313.812800,1019.891600
358.231475,9885.103200,706.078800,78.453200
358.231780,10512.728800,784.532000,0.000000
358.232086,9728.196800,784.532000,-706.078800
358.232392,9728.196800,470.719200,-392.266000
358.232697,9885.103200,0.000000,0.000000
358.233003,10120.462800,-470.719200,235.359600
358.233308,9649.743600,-1019.891600,549.172400
358.233614,9963.556400,-1098.344800,706.078800
358.233920,10042.009600,-392.266000,549.172400
358.234225,11924.886400,-1804.423600,0.000000
358.234531,14906.108000,-1255.251200,1725.970400
358.234837,7531.507200,0.000000,-235.359600
358.235142,9100.571200,470.719200,-549.172400
358.235448,10826.541600,784.532000,0.000000
358.235753,10042.009600,-392.266000,235.359600
358.236059,9414.384000,-1333.704400,1490.610800
358.236365,9022.118000,0.000000,706.078800
358.236670,11454.167200,-235.359600,784.532000
358.236976,9100.571200,78.453200,156.906400
358.237282,9963.556400,0.000000,156.906400
358.237587,10983.448000,706.078800,156.906400
358.237893,9335.930800,941.438400,-235.359600
358.238198,10904.994800,1176.798000,235.359600
358.238504,9885.103200,941.438400,-1019.891600
358.238810,8865.211600,-392.266000,-784.532000
358.239115,10748.088400,-549.172400,78.453200
358.239421,9335.930800,-1647.517200,-156.906400
358.239727,8629.852000,-1961.330000,627.625600
358.240032,9257.477600,-549.172400,0.000000
358.240338,11454.167200,-706.078800,706.078800
358.240643,8865.211600,313.812800,78.453200
358.240949,11061.901200,1176.798000,627.625600
358.241255,10983.448000,1176.798000,78.453200
358.241560,9806.650000,862.985200,-313.812800
358.241866,10042.009600,470.719200,-392.266000
358.242171,10512.728800,235.359600,0.000000
358.242477,9257.477600,-392.266000,-706.078800
358.242783,9728.196800,-1333.704400,235.359600
358.243088,9649.743600,-1255.251200,470.719200
358.243394,10042.009600,-1176.798000,784.532000
358.243700,10591.182000,-235.359600,549.172400
358.244005,10198.916000,470.719200,0.000000
358.244311,8786.758400,862.985200,-862.985200
358.244616,9963.556400,0.000000,-862.985200
358.244922,10042.009600,1019.891600,-1412.157600
358.245228,9571.290400,313.812800,-1255.251200
358.245533,9963.556400,0.000000,-627.625600
358.245839,9571.290400,-862.985200,235.359600
358.246145,9728.196800,-1019.891600,-235.359600
358.246450,9885.103200,-706.078800,156.906400
358.246756,10042.009600,-470.719200,470.719200
358.247061,9649.743600,0.000000,78.453200
358.247367,10120.462800,0.000000,470.719200
358.247673,10826.541600,627.625600,0.000000
358.247978,10042.009600,1019.891600,0.000000
358.248284,9571.290400,549.172400,-470.719200
358.248590,11218.807600,941.438400,0.000000
358.248895,7845.320000,-941.438400,706.078800
358.249201,10512.728800,235.359600,-235.359600
358.249506,9728.196800,-313.812800,78.453200
358.249812,9806.650000,0.000000,-235.359600
358.250118,10042.009600,-235.359600,0.000000
358.250423,9414.384000,-235.359600,78.453200
358.250729,11061.901200,549.172400,78.453200
358.251034,9885.103200,78.453200,-706.078800
358.251340,10198.916000,0.000000,0.000000
358.251646,10277.369200,627.625600,-627.625600
358.251951,9728.196800,392.266000,-1333.704400
358.252257,9649.743600,0.000000,-862.985200
358.252563,10042.009600,-156.906400,-313.812800
358.252868,9806.650000,0.000000,-470.719200
358.253174,9492.837200,-941.438400,235.359600
358.253479,10198.916000,-235.359600,470.719200
358.253785,10120.462800,235.359600,156.906400
358.254091,10355.822400,627.625600,78.453200
358.254396,10277.369200,470.719200,-156.906400
358.254702,9649.743600,235.359600,0.000000
358.255008,10277.369200,627.625600,-235.359600
358.255313,9885.103200,1098.344800,-706.078800
358.255619,9728.196800,-627.625600,-156.906400
358.255924,9492.837200,-627.625600,0.000000
358.256230,9885.103200,-549.172400,313.812800
358.256536,9414.384000,-627.625600,549.172400
358.256841,9885.103200,78.453200,235.359600
358.257147,10042.009600,392.266000,-392.266000
358.257453,9963.556400,784.532000,-1098.344800
358.257758,9963.556400,941.438400,-1019.891600
358.258064,10042.009600,235.359600,-1019.891600
358.258369,10042.009600,941.438400,-706.078800
358.258675,10748.088400,-313.812800,392.266000
358.258981,9179.024400,-392.266000,-313.812800
358.259286,9571.290400,-392.266000,0.000000
358.259592,10120.462800,-549.172400,470.719200
358.259898,10042.009600,-862.985200,549.172400
358.260203,10355.822400,78.453200,784.532000
358.260509,10512.728800,235.359600,627.625600
358.260814,9963.556400,313.812800,0.000000
358.261120,9885.103200,235.359600,0.000000
358.261426,11218.807600,0.000000,235.359600
358.261731,9728.196800,313.812800,392.266000
358.262037,9885.103200,-470.719200,1098.344800
358.262342,10983.448000,-941.438400,862.985200
358.262648,10355.822400,-156.906400,549.172400
358.262954,9414.384000,-549.172400,0.000000
358.263259,10042.009600,862.985200,941.438400
358.263565,9885.103200,392.266000,0.000000
358.263871,10042.009600,627.625600,0.000000
358.264176,10120.462800,549.172400,-313.812800
358.264482,9728.196800,313.812800,0.000000
358.264787,10277.369200,0.000000,-784.532000
358.265093,9885.103200,-392.266000,313.812800
358.265399,9414.384000,-235.359600,313.812800
358.265704,9728.196800,0.000000,156.906400
358.266010,9649.743600,-470.719200,235.359600
358.266316,9963.556400,78.453200,1176.798000
358.266621,10591.182000,235.359600,784.532000
358.266927,9963.556400,706.078800,235.359600
358.267232,10120.462800,235.359600,313.812800
358.267538,10042.009600,392.266000,235.359600
358.267844,10198.916000,470.719200,156.906400
358.268149,10277.369200,-313.812800,549.172400
358.268455,9885.103200,-313.812800,470.719200
358.268761,9806.650000,-862.985200,156.906400
358.269066,9963.556400,-862.985200,78.453200
358.269372,10434.275600,0.000000,313.812800
358.269677,9649.743600,-627.625600,392.266000
358.269983,9885.103200,470.719200,0.000000
358.270289,10277.369200,549.172400,78.453200
358.270594,10042.009600,549.172400,0.000000
358.270900,9492.837200,0.000000,-235.359600
358.271206,10120.462800,156.906400,-313.812800
358.271511,10042.009600,0.000000,78.453200
358.271817,9728.196800,-627.625600,0.000000
358.272122,9963.556400,-470.719200,235.359600
358.272428,9885.103200,-313.812800,470.719200
358.272734,9885.103200,-392.266000,313.812800
358.273039,9963.556400,156.906400,78.453200
358.273345,10198.916000,470.719200,470.719200
358.273650,10355.822400,627.625600,549.172400
358.273956,10042.009600,235.359600,0.000000
358.274262,9963.556400,549.172400,-392.266000
358.274567,10042.009600,78.453200,-549.172400
358.274873,9806.650000,-235.359600,-313.812800
358.275179,9963.556400,-470.719200,0.000000
358.275484,9963.556400,-470.719200,0.000000
358.275790,10042.009600,-549.172400,235.359600
358.276095,9806.650000,156.906400,0.000000
358.276401,10042.009600,392.266000,78.453200
358.276707,9885.103200,-235.359600,156.906400
358.277012,8237.586000,0.000000,-627.625600
358.277318,12003.339600,-392.266000,235.359600
358.277624,9885.103200,1176.798000,-470.719200
358.277929,9649.743600,-313.812800,-470.719200
358.278235,10512.728800,706.078800,0.000000
358.278540,10983.448000,78.453200,784.532000
358.278846,9100.571200,-392.266000,-235.359600
358.279152,10198.916000,0.000000,156.906400
358.279457,10355.822400,0.000000,706.078800
358.279763,9806.650000,156.906400,-235.359600
358.280069,9414.384000,-235.359600,78.453200
358.280374,10904.994800,235.359600,-78.453200
358.280680,9728.196800,1176.798000,-1647.517200
358.280985,9571.290400,0.000000,-78.453200
358.281291,11140.354400,-235.359600,-549.172400
358.281597,10120.462800,-862.985200,-549.172400
358.281902,9728.196800,-549.172400,-470.719200
358.282208,9257.477600,0.000000,-235.359600
358.282513,9571.290400,-313.812800,0.000000
358.282819,10277.369200,313.812800,0.000000
358.283125,10355.822400,156.906400,78.453200
358.283430,9963.556400,156.906400,0.000000
358.283736,10512.728800,1804.423600,235.359600
358.284042,10355.822400,-235.359600,0.000000
358.284347,9728.196800,156.906400,-392.266000
358.284653,9963.556400,0.000000,-470.719200
358.284958,9806.650000,-313.812800,-313.812800
358.285264,9728.196800,-549.172400,-313.812800
358.285570,10042.009600,235.359600,-862.985200
358.285875,9414.384000,392.266000,-470.719200
358.286181,10198.916000,78.453200,-313.812800
358.286487,10434.275600,235.359600,-549.172400
358.286792,9885.103200,0.000000,-706.078800
358.287098,9728.196800,1255.251200,-706.078800
358.287403,9963.556400,156.906400,-156.906400
358.287709,9806.650000,-156.906400,0.000000
358.288015,10120.462800,-156.906400,-235.359600
358.288320,9963.556400,-313.812800,0.000000
358.288626,10277.369200,-706.078800,313.812800
358.288932,9963.556400,0.000000,0.000000
358.289237,10512.728800,0.000000,392.266000
358.289543,9963.556400,0.000000,78.453200
358.289848,9492.837200,0.000000,0.000000
358.290154,10042.009600,706.078800,0.000000
358.290460,10277.369200,392.266000,0.000000
358.290765,9728.196800,0.000000,156.906400
358.291071,10277.369200,235.359600,0.000000
358.291377,9806.650000,-313.812800,-392.266000
358.291682,10042.009600,-156.906400,-627.625600
358.291988,9885.103200,0.000000,0.000000
358.292293,9492.837200,0.000000,0.000000
358.292599,10042.009600,-156.906400,0.000000
358.292905,10042.009600,156.906400,78.453200
358.293210,9179.024400,313.812800,-313.812800
358.293516,10198.916000,862.985200,-156.906400
358.293821,10120.462800,78.453200,-156.906400
358.294127,9806.650000,0.000000,0.000000
358.294433,10120.462800,0.000000,156.906400
358.294738,9963.556400,-627.625600,235.359600
358.295044,12552.512000,-313.812800,1961.330000
358.295350,9492.837200,235.359600,0.000000
358.295655,9492.837200,0.000000,0.000000
358.295961,11297.260800,706.078800,235.359600
358.296266,9571.290400,235.359600,156.906400
358.296572,9649.743600,470.719200,0.000000
358.296878,10591.182000,0.000000,313.812800
358.297183,9571.290400,0.000000,470.719200
358.297489,10512.728800,392.266000,235.359600
358.297795,9728.196800,0.000000,313.812800
358.298100,10669.635200,-156.906400,470.719200
358.298406,9728.196800,0.000000,235.359600
358.298711,11061.901200,235.359600,627.625600
358.299017,10277.369200,470.719200,0.000000
358.299323,10904.994800,0.000000,-549.172400
358.299628,9335.930800,706.078800,-235.359600
358.299934,9257.477600,78.453200,-1412.157600
358.300240,10198.916000,-470.719200,549.172400
358.300545,9885.103200,-706.078800,0.000000
358.300851,9728.196800,-313.812800,-156.906400
358.301156,9806.650000,-627.625600,-627.625600
358.301462,9571.290400,0.000000,-313.812800
358.301768,10042.009600,78.453200,0.000000
358.302073,10669.635200,549.172400,470.719200
358.302379,9885.103200,706.078800,0.000000
358.302685,9963.556400,549.172400,156.906400
358.302990,10198.916000,392.266000,0.000000
358.303296,8551.398800,-706.078800,313.812800
358.303601,9963.556400,0.000000,1019.891600
358.303907,10042.009600,-706.078800,2118.236400
358.304213,10277.369200,-549.172400,3138.128000
358.304518,10434.275600,-1569.064000,4236.472800
358.304824,10826.541600,-627.625600,4785.645200
358.305129,10277.369200,78.453200,4158.019600
358.305435,10669.635200,392.266000,3608.847200
358.305741,10277.369200,1176.798000,2745.862000
358.306046,10042.009600,784.532000,2588.955600
358.306352,9571.290400,706.078800,2196.689600
358.306658,9100.571200,-313.812800,2353.596000
358.306963,9414.384000,-1019.891600,2432.049200
358.307269,9492.837200,-1333.704400,3295.034400
358.307574,9492.837200,-1569.064000,4471.832400
358.307880,9885.103200,-1647.517200,5805.536800
358.308186,10198.916000,-627.625600,6354.709200
358.308491,10355.822400,-156.906400,7217.694400
358.308797,10826.541600,941.438400,7374.600800
358.309103,11140.354400,1333.704400,7296.147600
358.309408,9963.556400,1569.064000,7060.788000
358.309714,10591.182000,862.985200,6746.975200
358.310019,10277.369200,156.906400,6825.428400
358.310325,9963.556400,-627.625600,6982.334800
358.310631,10042.009600,-1569.064000,7609.960400
358.310936,9885.103200,-1961.330000,9100.571200
358.311242,10120.462800,-1412.157600,9335.930800
358.311548,10748.088400,-1490.610800,10120.462800
358.311853,10591.182000,-549.172400,10512.728800
358.312159,11375.714000,78.453200,10904.994800
358.312464,11454.167200,235.359600,11218.807600
358.312770,10904.994800,862.985200,10434.275600
358.313076,10277.369200,1019.891600,9885.103200
358.313381,10042.009600,313.812800,9649.743600
358.313687,9963.556400,-470.719200,9492.837200
358.313992,9649.743600,-941.438400,9649.743600
358.314298,9571.290400,-1333.704400,9100.571200
358.314604,9414.384000,-1098.344800,10120.462800
358.314909,9806.650000,-941.438400,10434.275600
358.315215,10277.369200,-392.266000,10904.994800
358.315521,10434.275600,78.453200,10512.728800
358.315826,9728.196800,784.532000,10748.088400
358.316132,12160.246000,706.078800,10748.088400
358.316437,10904.994800,1647.517200,10277.369200
358.316743,10277.369200,1098.344800,9885.103200
358.317049,10120.462800,156.906400,8551.398800
358.317354,10198.916000,-627.625600,9335.930800
358.317660,10277.369200,-1255.251200,9022.118000
358.317966,9806.650000,-1098.344800,8316.039200
358.318271,9885.103200,-1019.891600,8002.226400
358.318577,9649.743600,-549.172400,7060.788000
358.318882,10042.009600,235.359600,6433.162400
358.319188,9492.837200,549.172400,5413.270800
358.319494,9414.384000,941.438400,5021.004800
358.319799,9492.837200,862.985200,4942.551600
358.320105,9728.196800,156.906400,5021.004800
358.320411,9571.290400,-470.719200,4707.192000
358.320716,9257.477600,0.000000,4471.832400
358.321022,9728.196800,-627.625600,4236.472800
358.321327,9885.103200,-1961.330000,4236.472800
358.321633,10277.369200,-1176.798000,4001.113200
358.321939,10198.916000,-1647.517200,4079.566400
358.322244,10120.462800,-941.438400,3765.753600
358.322550,10434.275600,-784.532000,3216.581200
358.322856,10434.275600,-313.812800,2510.502400
358.323161,10277.369200,0.000000,1804.423600
358.323467,10042.009600,470.719200,1019.891600
358.323772,10277.369200,392.266000,0.000000
358.324078,10355.822400,392.266000,-156.906400
358.324384,10042.009600,-235.359600,-706.078800
358.324689,9492.837200,-706.078800,-1255.251200
358.324995,9885.103200,-706.078800,-1255.251200
358.325300,9649.743600,-549.172400,-1569.064000
358.325606,9571.290400,-784.532000,-2196.689600
358.325912,9414.384000,-1412.157600,-2745.862000
358.326217,9414.384000,-156.906400,-2667.408800
358.326523,10042.009600,-470.719200,-2824.315200
358.326829,9100.571200,313.812800,-3138.128000
358.327134,9414.384000,0.000000,-3451.940800
358.327440,10042.009600,549.172400,-3530.394000
358.327745,9022.118000,0.000000,-3922.660000
358.328051,9649.743600,0.000000,-4158.019600
358.328357,10669.635200,-627.625600,-3844.206800
358.328662,9414.384000,0.000000,-3922.660000
358.328968,10042.009600,78.453200,-4158.019600
358.329274,10277.369200,0.000000,-4001.113200
358.329579,9728.196800,235.359600,-4236.472800
358.329885,10277.369200,392.266000,-4079.566400
358.330190,9806.650000,549.172400,-3922.660000
358.330496,10198.916000,470.719200,-4236.472800
358.330802,10198.916000,313.812800,-4471.832400
358.331107,9963.556400,156.906400,-4707.192000
358.331413,9728.196800,235.359600,-4707.192000
358.331719,10198.916000,235.359600,-4471.832400
358.332024,9885.103200,0.000000,-4785.645200
358.332330,9728.196800,0.000000,-5099.458000
358.332635,9963.556400,78.453200,-5021.004800
358.332941,8943.664800,-156.906400,-4864.098400
358.333247,10042.009600,78.453200,-4707.192000
358.333552,10434.275600,78.453200,-4393.379200
358.333858,9100.571200,470.719200,-3844.206800
358.334164,9885.103200,0.000000,-4001.113200
358.334469,10120.462800,313.812800,-4393.379200
358.334775,10355.822400,313.812800,-3530.394000
358.335080,10042.009600,235.359600,-3765.753600
358.335386,9806.650000,1176.798000,-3922.660000
358.335692,10198.916000,0.000000,-3216.581200
358.335997,10120.462800,0.000000,-2824.315200
358.336303,10042.009600,156.906400,-2588.955600
358.336608,10042.009600,156.906400,-2510.502400
358.336914,10355.822400,313.812800,-2432.049200
358.337220,10042.009600,156.906400,-2275.142800
358.337525,10042.009600,706.078800,-2432.049200
358.337831,10042.009600,627.625600,-2510.502400
358.338137,9963.556400,0.000000,-2275.142800
358.338442,9571.290400,-235.359600,-1804.423600
358.338748,10120.462800,235.359600,-1255.251200
358.339053,10120.462800,-392.266000,-1019.891600
358.339359,10355.822400,-470.719200,-627.625600
358.339665,10434.275600,-392.266000,-392.266000
358.339970,9571.290400,78.453200,-392.266000
358.340276,10198.916000,156.906400,0.000000
358.340582,9885.103200,156.906400,78.453200
358.340887,9885.103200,313.812800,784.532000
358.341193,9571.290400,941.438400,1019.891600
358.341498,10042.009600,78.453200,941.438400
358.341804,10120.462800,392.266000,1490.610800
358.342110,10355.822400,0.000000,1725.970400
358.342415,10120.462800,-313.812800,1961.330000
358.342721,10277.369200,78.453200,1961.330000
358.343027,10512.728800,470.719200,2510.502400
358.343332,9963.556400,156.906400,2510.502400
358.343638,10591.182000,470.719200,2745.862000
358.343943,10120.462800,706.078800,2588.955600
358.344249,9963.556400,784.532000,3451.940800
358.344555,9963.556400,784.532000,3216.581200
358.344860,9492.837200,313.812800,3059.674800
358.345166,10198.916000,235.359600,3059.674800
358.345471,10042.009600,392.266000,3138.128000
358.345777,9649.743600,313.812800,3059.674800
358.346083,9885.103200,392.266000,3687.300400
358.346388,9728.196800,392.266000,3451.940800
358.346694,9649.743600,470.719200,3373.487600
358.347000,9728.196800,470.719200,3451.940800
358.347305,9728.196800,313.812800,3530.394000
358.347611,9335.930800,784.532000,4079.566400
358.347916,9963.556400,78.453200,3530.394000
358.348222,10042.009600,313.812800,3373.487600
358.348528,9885.103200,470.719200,2902.768400
358.348833,9963.556400,392.266000,2432.049200
358.349139,10198.916000,78.453200,2510.502400
358.349445,10120.462800,0.000000,2667.408800
358.349750,10120.462800,-156.906400,2745.862000
358.350056,9885.103200,0.000000,2588.955600
358.350361,10120.462800,-235.359600,2432.049200
358.350667,10120.462800,0.000000,2432.049200
358.350973,10042.009600,-156.906400,1882.876800
358.351278,9963.556400,0.000000,1882.876800
358.351584,9963.556400,313.812800,2196.689600
358.351890,10669.635200,-235.359600,1961.330000
358.352195,10355.822400,0.000000,1490.610800
358.352501,10591.182000,235.359600,784.532000
358.352806,10042.009600,-78.453200,1098.344800
358.353112,9963.556400,-627.625600,706.078800
358.353418,10042.009600,-549.172400,156.906400
358.353723,9885.103200,-156.906400,156.906400
358.354029,10042.009600,313.812800,156.906400
358.354335,9963.556400,0.000000,-470.719200
358.354640,10042.009600,0.000000,-392.266000
358.354946,9963.556400,0.000000,-549.172400
358.355251,9963.556400,-156.906400,-706.078800
358.355557,9728.196800,-549.172400,-627.625600
358.355863,10042.009600,-549.172400,-941.438400
358.356168,9963.556400,-392.266000,-862.985200
358.356474,10042.009600,-470.719200,-1019.891600
358.356779,10042.009600,-235.359600,-1255.251200
358.357085,10355.822400,0.000000,-1019.891600
358.357391,9885.103200,0.000000,-1412.157600
358.357696,9885.103200,0.000000,-1804.423600
358.358002,10042.009600,0.000000,-2039.783200
358.358308,9885.103200,0.000000,-2118.236400
358.358613,9649.743600,0.000000,-1961.330000
358.358919,9414.384000,0.000000,-1725.970400
358.359224,9963.556400,-470.719200,-1961.330000
358.359530,9571.290400,-235.359600,-2510.502400
358.359836,9806.650000,0.000000,-2196.689600
358.360141,9728.196800,0.000000,-2432.049200
358.360447,9963.556400,0.000000,-2275.142800
358.360753,9649.743600,0.000000,-2510.502400
358.361058,9728.196800,0.000000,-2510.502400
358.361364,9728.196800,0.000000,-2432.049200
358.361669,9649.743600,0.000000,-2510.502400
358.361975,9649.743600,0.000000,-3138.128000
358.362281,10042.009600,-392.266000,-2510.502400
358.362586,9885.103200,0.000000,-2353.596000
358.362892,9963.556400,0.000000,-2275.142800
358.363198,10198.916000,0.000000,-2039.783200
358.363503,9963.556400,-235.359600,-2118.236400
358.363809,10042.009600,78.453200,-1804.423600
358.364114,10042.009600,627.625600,-1804.423600
358.364420,9728.196800,0.000000,-1882.876800
358.364726,9963.556400,0.000000,-1804.423600
358.365031,9963.556400,313.812800,-2118.236400
358.365337,10042.009600,-156.906400,-1961.330000
358.365643,10120.462800,-392.266000,-1569.064000
358.365948,9728.196800,0.000000,-1333.704400
358.366254,9885.103200,-156.906400,-1255.251200
358.366559,9728.196800,235.359600,-1882.876800
358.366865,9571.290400,0.000000,-1176.798000
358.367171,9492.837200,156.906400,-1176.798000
358.367476,9885.103200,78.453200,-1019.891600
358.367782,9649.743600,313.812800,-1098.344800
358.368087,9728.196800,0.000000,-627.625600
358.368393,10591.182000,-313.812800,-392.266000
358.368699,9806.650000,0.000000,-313.812800
358.369004,9806.650000,0.000000,0.000000
358.369310,10120.462800,0.000000,0.000000
358.369616,9492.837200,78.453200,-78.453200
358.369921,9963.556400,0.000000,156.906400
358.370227,10042.009600,549.172400,0.000000
358.370532,9806.650000,78.453200,1333.704400
358.370838,10904.994800,-156.906400,627.625600
358.371144,10277.369200,235.359600,235.359600
358.371449,10591.182000,156.906400,941.438400
358.371755,9649.743600,0.000000,549.172400
358.372061,9806.650000,0.000000,470.719200
358.372366,9728.196800,0.000000,549.172400
358.372672,10042.009600,0.000000,549.172400
358.372977,9885.103200,0.000000,862.985200
358.373283,9885.103200,-156.906400,549.172400
358.373589,9963.556400,78.453200,627.625600
358.373894,9806.650000,235.359600,627.625600
358.374200,9885.103200,156.906400,627.625600
358.374506,10120.462800,313.812800,941.438400
358.374811,10120.462800,78.453200,1098.344800
358.375117,10120.462800,0.000000,1098.344800
358.375422,10120.462800,0.000000,1412.157600
358.375728,10277.369200,0.000000,1333.704400
358.376034,10042.009600,0.000000,1412.157600
358.376339,9963.556400,235.359600,1098.344800
358.376645,10120.462800,156.906400,1019.891600
358.376950,10042.009600,78.453200,1098.344800
358.377256,10042.009600,156.906400,941.438400
358.377562,10042.009600,0.000000,1412.157600
358.377867,9885.103200,313.812800,862.985200
358.378173,9963.556400,313.812800,313.812800
358.378479,9728.196800,313.812800,313.812800
358.378784,9728.196800,0.000000,235.359600
358.379090,9806.650000,0.000000,470.719200
358.379395,10042.009600,0.000000,549.172400
358.379701,10042.009600,0.000000,470.719200
358.380007,10042.009600,0.000000,470.719200
358.380312,10042.009600,235.359600,235.359600
358.380618,10198.916000,0.000000,156.906400
358.380924,10434.275600,-313.812800,0.000000
358.381229,9963.556400,235.359600,235.359600
358.381535,10042.009600,0.000000,156.906400
358.381840,9963.556400,156.906400,235.359600
358.382146,10042.009600,0.000000,78.453200
358.382452,9414.384000,392.266000,313.812800
358.382757,10120.462800,78.453200,0.000000
358.383063,9885.103200,0.000000,0.000000
358.383369,10042.009600,156.906400,-549.172400
358.383674,10042.009600,78.453200,-392.266000
358.383980,9963.556400,156.906400,313.812800
358.384285,9571.290400,392.266000,-392.266000
358.384591,9885.103200,0.000000,-549.172400
358.384897,9885.103200,-78.453200,-549.172400
358.385202,9885.103200,0.000000,-549.172400
358.385508,10042.009600,0.000000,-392.266000
358.385814,10198.916000,0.000000,-627.625600
358.386119,10042.009600,156.906400,-706.078800
358.386425,10042.009600,0.000000,-627.625600
358.386730,10042.009600,0.000000,-392.266000
358.387036,10198.916000,0.000000,-549.172400
358.387342,10277.369200,470.719200,-313.812800
358.387647,10042.009600,235.359600,-784.532000
358.387953,10042.009600,0.000000,-470.719200
358.388258,10434.275600,0.000000,-1176.798000
358.388564,9100.571200,235.359600,-549.172400
358.388870,10042.009600,0.000000,-1019.891600
358.389175,9885.103200,0.000000,-941.438400
358.389481,9963.556400,78.453200,-78.453200
358.389787,9885.103200,0.000000,-235.359600
358.390092,10042.009600,0.000000,-392.266000
358.390398,9885.103200,0.000000,-156.906400
358.390703,10042.009600,235.359600,0.000000
358.391009,10042.009600,0.000000,0.000000
358.391315,10042.009600,0.000000,0.000000
358.391620,9806.650000,0.000000,0.000000
358.391926,9885.103200,0.000000,0.000000
358.392232,9963.556400,392.266000,235.359600
358.392537,10042.009600,0.000000,78.453200
358.392843,9728.196800,0.000000,78.453200
358.393148,9885.103200,0.000000,78.453200
358.393454,10042.009600,78.453200,156.906400
358.393760,10277.369200,-313.812800,706.078800
358.394065,10042.009600,0.000000,0.000000
358.394371,10042.009600,0.000000,78.453200
358.394677,10042.009600,0.000000,156.906400
358.394982,9963.556400,0.000000,0.000000
358.395288,9728.196800,392.266000,470.719200
358.395593,10120.462800,0.000000,549.172400
358.395899,10042.009600,0.000000,156.906400
358.396205,10042.009600,0.000000,235.359600
358.396510,10042.009600,0.000000,313.812800
358.396816,9649.743600,0.000000,706.078800
358.397122,10355.822400,-313.812800,78.453200
358.397427,10042.009600,0.000000,156.906400
358.397733,10042.009600,78.453200,78.453200
358.398038,10042.009600,78.453200,313.812800
358.398344,9963.556400,78.453200,235.359600
358.398650,9963.556400,0.000000,706.078800
358.398955,10042.009600,0.000000,235.359600
358.399261,9963.556400,0.000000,78.453200
358.399566,9963.556400,-156.906400,235.359600
358.399872,9963.556400,0.000000,392.266000
358.400178,9963.556400,0.000000,78.453200
358.400483,9963.556400,0.000000,156.906400
358.400789,9963.556400,0.000000,156.906400
358.401095,9963.556400,0.000000,549.172400
358.401400,10042.009600,0.000000,470.719200
358.401706,9885.103200,392.266000,627.625600
358.402011,9885.103200,-156.906400,235.359600
358.402317,10042.009600,0.000000,78.453200
358.402623,9963.556400,0.000000,235.359600
358.402928,9963.556400,0.000000,313.812800
358.403234,10042.009600,-392.266000,784.532000
358.403540,10120.462800,-156.906400,235.359600
358.403845,10042.009600,78.453200,78.453200
358.404151,9885.103200,0.000000,313.812800
358.404456,9885.103200,0.000000,313.812800
358.404762,10120.462800,0.000000,862.985200
358.405068,9885.103200,0.000000,0.000000
358.405373,9885.103200,0.000000,0.000000
358.405679,9963.556400,-392.266000,156.906400
358.405985,9963.556400,-78.453200,-235.359600
358.406290,9335.930800,313.812800,627.625600
358.406596,10591.182000,-392.266000,470.719200
358.406901,9806.650000,0.000000,392.266000
358.407207,10120.462800,0.000000,156.906400
358.407513,9963.556400,0.000000,78.453200
358.407818,9885.103200,78.453200,235.359600
358.408124,10198.916000,392.266000,0.000000
358.408430,9963.556400,0.000000,0.000000
358.408735,10042.009600,0.000000,156.906400
358.409041,10042.009600,-235.359600,235.359600
358.409346,10042.009600,0.000000,235.359600
358.409652,10120.462800,-235.359600,470.719200
358.409958,9963.556400,0.000000,0.000000
358.410263,9885.103200,0.000000,78.453200
358.410569,9963.556400,0.000000,156.906400
358.410874,10042.009600,0.000000,78.453200
358.411180,10198.916000,-235.359600,549.172400
358.411486,10042.009600,78.453200,156.906400
358.411791,10042.009600,0.000000,0.000000
358.412097,10042.009600,0.000000,0.000000
358.412403,10198.916000,0.000000,0.000000
358.412708,9963.556400,470.719200,-549.172400
358.413014,9963.556400,0.000000,0.000000
358.413319,10042.009600,0.000000,0.000000
358.413625,10042.009600,0.000000,0.000000
358.413931,10120.462800,78.453200,0.000000
358.414236,10355.822400,0.000000,0.000000
358.414542,10355.822400,0.000000,-313.812800
358.414848,10042.009600,156.906400,0.000000
358.415153,10042.009600,0.000000,-392.266000
358.415459,9963.556400,156.906400,-313.812800
358.415764,10042.009600,0.000000,-235.359600
358.416070,10120.462800,0.000000,0.000000
358.416376,9963.556400,0.000000,0.000000
358.416681,10042.009600,0.000000,-235.359600
358.416987,10042.009600,0.000000,-156.906400
358.417293,10042.009600,78.453200,-313.812800
358.417598,10198.916000,470.719200,-392.266000
358.417904,10042.009600,78.453200,-156.906400
358.418209,9963.556400,235.359600,0.000000
358.418515,10042.009600,0.000000,0.000000
358.418821,10042.009600,0.000000,78.453200
358.419126,10198.916000,78.453200,706.078800
358.419432,10042.009600,0.000000,235.359600
358.419737,10198.916000,0.000000,0.000000
358.420043,10042.009600,156.906400,-156.906400
358.420349,10042.009600,235.359600,0.000000
358.420654,9885.103200,549.172400,-1019.891600
358.420960,10120.462800,156.906400,0.000000
358.421266,10042.009600,235.359600,0.000000
358.421571,9963.556400,156.906400,0.000000
358.421877,10042.009600,0.000000,-235.359600
358.422182,10042.009600,0.000000,627.625600
358.422488,9963.556400,0.000000,313.812800
358.422794,10042.009600,0.000000,0.000000
358.423099,9963.556400,78.453200,0.000000
358.423405,10042.009600,0.000000,0.000000
358.423711,9728.196800,0.000000,-78.453200
358.424016,10042.009600,0.000000,0.000000
358.424322,9414.384000,78.453200,0.000000
358.424627,9885.103200,0.000000,-156.906400
358.424933,10042.009600,235.359600,-706.078800
358.425239,9492.837200,0.000000,156.906400
358.425544,10277.369200,235.359600,0.000000
358.425850,10042.009600,-156.906400,0.000000
358.426156,10042.009600,-156.906400,0.000000
358.426461,9963.556400,0.000000,0.000000
358.426767,9963.556400,0.000000,-235.359600
358.427072,9649.743600,78.453200,0.000000
358.427378,10042.009600,-235.359600,0.000000
358.427684,10042.009600,-235.359600,78.453200
358.427989,9963.556400,-235.359600,-235.359600
358.428295,10042.009600,-156.906400,0.000000
358.428601,10198.916000,627.625600,-549.172400
358.428906,10198.916000,-78.453200,156.906400
358.429212,10042.009600,0.000000,0.000000
358.429517,10042.009600,-156.906400,0.000000
358.429823,9885.103200,78.453200,78.453200
358.430129,10042.009600,0.000000,392.266000
358.430434,10042.009600,-392.266000,0.000000
358.430740,10120.462800,0.000000,0.000000
358.431045,9963.556400,-156.906400,78.453200
358.431351,10042.009600,0.000000,0.000000
358.431657,9885.103200,0.000000,235.359600
358.431962,10120.462800,0.000000,0.000000
358.432268,10042.009600,0.000000,0.000000
358.432574,10042.009600,156.906400,0.000000
358.432879,9885.103200,78.453200,0.000000
358.433185,10042.009600,313.812800,0.000000
358.433490,9963.556400,78.453200,0.000000
358.433796,9963.556400,78.453200,0.000000
358.434102,10042.009600,0.000000,78.453200
358.434407,9963.556400,0.000000,0.000000
358.434713,10042.009600,0.000000,0.000000
358.435019,9806.650000,0.000000,78.453200
358.435324,9885.103200,0.000000,0.000000
358.435630,10042.009600,156.906400,0.000000
358.435935,9885.103200,392.266000,-235.359600
358.436241,10042.009600,313.812800,-156.906400
358.436547,10042.009600,235.359600,-470.719200
358.436852,9806.650000,78.453200,0.000000
358.437158,9885.103200,0.000000,0.000000
358.437464,9963.556400,0.000000,0.000000
358.437769,10120.462800,78.453200,0.000000
358.438075,10042.009600,235.359600,0.000000
358.438380,9806.650000,235.359600,235.359600
358.438686,9963.556400,235.359600,-235.359600
358.438992,10042.009600,235.359600,0.000000
358.439297,9963.556400,235.359600,78.453200
358.439603,9963.556400,78.453200,549.172400
358.439909,9963.556400,78.453200,0.000000
358.440214,9963.556400,0.000000,0.000000
358.440520,10042.009600,0.000000,-235.359600
358.440825,9963.556400,0.000000,-156.906400
358.441131,9885.103200,0.000000,0.000000
358.441437,10512.728800,-235.359600,0.000000
358.441742,10277.369200,1019.891600,-78.453200
358.442048,10042.009600,0.000000,0.000000
358.442353,10042.009600,235.359600,0.000000
358.442659,10042.009600,0.000000,-313.812800
358.442965,9963.556400,0.000000,0.000000
358.443270,9100.571200,-78.453200,0.000000
358.443576,9806.650000,-313.812800,-392.266000
358.443882,9885.103200,0.000000,0.000000
358.444187,9963.556400,-156.906400,0.000000
358.444493,10120.462800,0.000000,0.000000
358.444798,10042.009600,0.000000,-392.266000
358.445104,9885.103200,78.453200,0.000000
358.445410,9963.556400,0.000000,-235.359600
358.445715,9885.103200,0.000000,-313.812800
358.446021,10277.369200,0.000000,-627.625600
358.446327,9885.103200,0.000000,0.000000
358.446632,9885.103200,-156.906400,0.000000
358.446938,10042.009600,0.000000,-235.359600
358.447243,9885.103200,0.000000,0.000000
358.447549,9963.556400,-235.359600,0.000000
358.447855,10042.009600,156.906400,0.000000
358.448160,9885.103200,0.000000,0.000000
358.448466,10042.009600,0.000000,-313.812800
358.448772,9963.556400,0.000000,0.000000
358.449077,10042.009600,0.000000,-156.906400
358.449383,9806.650000,392.266000,392.266000
358.449688,10042.009600,0.000000,0.000000
358.449994,10042.009600,0.000000,-392.266000
358.450300,9885.103200,0.000000,0.000000
358.450605,10042.009600,0.000000,0.000000
358.450911,10120.462800,156.906400,-156.906400
358.451216,10042.009600,0.000000,0.000000
358.451522,9806.650000,78.453200,0.000000
358.451828,9963.556400,0.000000,0.000000
358.452133,10042.009600,156.906400,0.000000
358.452439,10042.009600,0.000000,313.812800
358.452745,10042.009600,0.000000,0.000000
358.453050,9885.103200,0.000000,0.000000
358.453356,9806.650000,0.000000,0.000000
358.453661,9963.556400,0.000000,0.000000
358.453967,9728.196800,78.453200,0.000000
358.454273,9963.556400,78.453200,0.000000
358.454578,9963.556400,78.453200,-156.906400
358.454884,9963.556400,156.906400,0.000000
358.455190,9806.650000,0.000000,0.000000
358.455495,9806.650000,0.000000,0.000000
358.455801,10355.822400,-470.719200,0.000000
358.456106,9885.103200,0.000000,0.000000
358.456412,10042.009600,0.000000,78.453200
358.456718,9963.556400,78.453200,0.000000
358.457023,9885.103200,78.453200,-156.906400
358.457329,10042.009600,470.719200,392.266000
358.457635,10042.009600,78.453200,0.000000
358.457940,10042.009600,0.000000,0.000000
358.458246,10042.009600,0.000000,0.000000
358.458551,9885.103200,0.000000,0.000000
358.458857,9885.103200,78.453200,-941.438400
358.459163,10042.009600,78.453200,78.453200
358.459468,10042.009600,-156.906400,0.000000
358.459774,9963.556400,-235.359600,-941.438400
358.460080,10042.009600,78.453200,549.172400
358.460385,9963.556400,-706.078800,-235.359600
358.460691,10198.916000,862.985200,-235.359600
358.460996,10198.916000,0.000000,549.172400
358.461302,10904.994800,-78.453200,313.812800
358.461608,10355.822400,235.359600,-235.359600
358.461913,9492.837200,313.812800,0.000000
358.462219,10042.009600,0.000000,0.000000
358.462524,10042.009600,0.000000,78.453200
358.462830,10042.009600,0.000000,0.000000
358.463136,9963.556400,0.000000,0.000000
358.463441,9806.650000,156.906400,-784.532000
358.463747,10198.916000,0.000000,0.000000
358.464053,10042.009600,0.000000,-156.906400
358.464358,10042.009600,0.000000,0.000000
358.464664,10042.009600,0.000000,-156.906400
358.464969,9885.103200,0.000000,0.000000
358.465275,10042.009600,-235.359600,-392.266000
358.465581,10042.009600,0.000000,0.000000
358.465886,10042.009600,0.000000,0.000000
358.466192,10042.009600,0.000000,0.000000
358.466498,10042.009600,-156.906400,0.000000
358.466803,9963.556400,0.000000,-313.812800
358.467109,10042.009600,0.000000,0.000000
358.467414,9963.556400,0.000000,-156.906400
358.467720,9963.556400,78.453200,0.000000
358.468026,10042.009600,156.906400,-156.906400
358.468331,10042.009600,-392.266000,-313.812800
358.468637,9885.103200,0.000000,0.000000
358.468943,9806.650000,0.000000,-235.359600
358.469248,9963.556400,0.000000,0.000000
358.469554,9885.103200,78.453200,0.000000
358.469859,10434.275600,0.000000,156.906400
358.470165,10042.009600,156.906400,0.000000
358.470471,10042.009600,0.000000,0.000000
358.470776,10120.462800,78.453200,0.000000
358.471082,10042.009600,0.000000,78.453200
358.471388,10355.822400,313.812800,78.453200
358.471693,10120.462800,0.000000,0.000000
358.471999,10042.009600,0.000000,0.000000
358.472304,9806.650000,0.000000,0.000000
358.472610,10042.009600,0.000000,0.000000
358.472916,9885.103200,78.453200,392.266000
358.473221,10355.822400,0.000000,235.359600
358.473527,9963.556400,0.000000,0.000000
358.473832,9963.556400,-156.906400,0.000000
358.474138,9885.103200,78.453200,0.000000
358.474444,9963.556400,0.000000,313.812800
358.474749,10042.009600,0.000000,78.453200
358.475055,10042.009600,156.906400,0.000000
358.475361,10042.009600,0.000000,0.000000
358.475666,9885.103200,156.906400,0.000000
358.475972,10120.462800,0.000000,0.000000
358.476277,10198.916000,235.359600,627.625600
358.476583,9806.650000,0.000000,0.000000
358.476889,9963.556400,78.453200,0.000000
358.477194,10042.009600,0.000000,0.000000
358.477500,9963.556400,235.359600,0.000000
358.477806,10826.541600,156.906400,0.000000
358.478111,9806.650000,0.000000,0.000000
358.478417,9963.556400,0.000000,235.359600
358.478722,10198.916000,-313.812800,0.000000
358.479028,9806.650000,78.453200,78.453200
358.479334,10434.275600,0.000000,-313.812800
358.479639,9963.556400,-313.812800,313.812800
358.479945,10042.009600,78.453200,392.266000
358.480251,10042.009600,0.000000,78.453200
358.480556,10120.462800,0.000000,78.453200
358.480862,9885.103200,470.719200,78.453200
358.481167,9806.650000,156.906400,0.000000
358.481473,9728.196800,78.453200,0.000000
358.481779,10042.009600,0.000000,78.453200
358.482084,9885.103200,0.000000,0.000000
358.482390,9963.556400,156.906400,313.812800
358.482695,9963.556400,0.000000,156.906400
358.483001,10042.009600,0.000000,0.000000
358.483307,10042.009600,0.000000,0.000000
358.483612,10277.369200,0.000000,0.000000
358.483918,9571.290400,470.719200,392.266000
358.484224,10120.462800,0.000000,0.000000
358.484529,9963.556400,0.000000,0.000000
358.484835,9963.556400,78.453200,78.453200
358.485140,10042.009600,0.000000,156.906400
358.485446,9571.290400,0.000000,0.000000
358.485752,10042.009600,0.000000,0.000000
358.486057,9963.556400,0.000000,0.000000
358.486363,10042.009600,0.000000,156.906400
358.486669,9963.556400,78.453200,235.359600
358.486974,10277.369200,156.906400,0.000000
358.487280,10042.009600,0.000000,0.000000
358.487585,9885.103200,0.000000,0.000000
358.487891,10042.009600,0.000000,156.906400
358.488197,10042.009600,-156.906400,0.000000
358.488502,9885.103200,0.000000,0.000000
358.488808,10120.462800,-470.719200,313.812800
358.489114,10042.009600,0.000000,313.812800
358.489419,10042.009600,0.000000,156.906400
358.489725,9963.556400,0.000000,156.906400
358.490030,9885.103200,0.000000,0.000000
358.490336,9728.196800,313.812800,549.172400
358.490642,9963.556400,0.000000,0.000000
358.490947,10120.462800,-156.906400,235.359600
358.491253,9885.103200,0.000000,0.000000
358.491559,10042.009600,0.000000,78.453200
358.491864,9728.196800,0.000000,549.172400
358.492170,10042.009600,0.000000,0.000000
358.492475,10120.462800,0.000000,156.906400
358.492781,10042.009600,0.000000,0.000000
358.493087,9885.103200,78.453200,0.000000
358.493392,10042.009600,78.453200,156.906400
358.493698,9963.556400,0.000000,78.453200
358.494003,9806.650000,235.359600,0.000000
358.494309,9885.103200,0.000000,0.000000
358.494615,9963.556400,0.000000,-156.906400
358.494920,10042.009600,0.000000,0.000000
358.495226,10042.009600,0.000000,235.359600
358.495532,9963.556400,78.453200,0.000000
358.495837,9571.290400,0.000000,1176.798000
358.496143,10277.369200,0.000000,0.000000
358.496448,9963.556400,156.906400,78.453200
358.496754,10512.728800,470.719200,0.000000
358.497060,10042.009600,0.000000,0.000000
358.497365,10042.009600,0.000000,-78.453200
358.497671,10277.369200,0.000000,0.000000
358.497977,9806.650000,0.000000,0.000000
358.498282,10120.462800,-156.906400,470.719200
358.498588,10120.462800,0.000000,-235.359600
358.498893,9963.556400,0.000000,78.453200
358.499199,10042.009600,156.906400,0.000000
358.499505,9963.556400,0.000000,0.000000
358.499810,10042.009600,0.000000,0.000000
358.500116,10277.369200,0.000000,0.000000
358.500422,10042.009600,0.000000,78.453200
358.500727,9885.103200,78.453200,0.000000
358.501033,9885.103200,235.359600,0.000000
358.501338,9963.556400,0.000000,0.000000
358.501644,10042.009600,313.812800,-313.812800
358.501950,10042.009600,0.000000,0.000000
358.502255,9963.556400,78.453200,0.000000
358.502561,10042.009600,0.000000,0.000000
358.502867,10042.009600,0.000000,0.000000
358.503172,10042.009600,78.453200,235.359600
358.503478,9963.556400,0.000000,0.000000
358.503783,10042.009600,156.906400,0.000000
358.504089,10042.009600,78.453200,0.000000
358.504395,9963.556400,78.453200,0.000000
358.504700,10042.009600,313.812800,0.000000
358.505006,10042.009600,0.000000,0.000000
358.505311,9963.556400,-156.906400,0.000000
358.505617,9806.650000,0.000000,0.000000
358.505923,9963.556400,0.000000,0.000000
358.506228,10120.462800,0.000000,-235.359600
358.506534,9649.743600,156.906400,0.000000
358.506840,9963.556400,0.000000,0.000000
358.507145,10042.009600,78.453200,78.453200
358.507451,10042.009600,0.000000,0.000000
358.507756,9885.103200,156.906400,-235.359600
358.508062,10120.462800,0.000000,78.453200
358.508368,9885.103200,0.000000,78.453200
358.508673,10042.009600,0.000000,-313.812800
358.508979,9963.556400,0.000000,-156.906400
358.509285,9963.556400,78.453200,0.000000
358.509590,10042.009600,-392.266000,-235.359600
358.509896,10120.462800,0.000000,78.453200
358.510201,10042.009600,0.000000,78.453200
358.510507,9885.103200,156.906400,156.906400
358.510813,10120.462800,156.906400,0.000000
358.511118,9963.556400,156.906400,78.453200
358.511424,9885.103200,156.906400,0.000000
358.511730,10120.462800,0.000000,0.000000
358.512035,10042.009600,0.000000,0.000000
358.512341,9806.650000,0.000000,0.000000
358.512646,10277.369200,470.719200,-235.359600
358.512952,10042.009600,0.000000,0.000000
358.513258,10042.009600,0.000000,0.000000
358.513563,10042.009600,0.000000,0.000000
358.513869,9414.384000,156.906400,0.000000
358.514174,9257.477600,313.812800,784.532000
358.514480,10042.009600,549.172400,-706.078800
358.514786,9257.477600,156.906400,1019.891600
358.515091,10042.009600,78.453200,0.000000
358.515397,10042.009600,1019.891600,-392.266000
358.515703,9963.556400,156.906400,0.000000
358.516008,9963.556400,0.000000,-313.812800
358.516314,9963.556400,0.000000,0.000000
358.516619,10120.462800,0.000000,156.906400
358.516925,10042.009600,78.453200,0.000000
358.517231,9728.196800,78.453200,0.000000
358.517536,10120.462800,313.812800,235.359600
358.517842,10042.009600,313.812800,0.000000
358.518148,10042.009600,235.359600,0.000000
358.518453,10042.009600,0.000000,-156.906400
358.518759,10042.009600,0.000000,0.000000
358.519064,9100.571200,-549.172400,0.000000
358.519370,9963.556400,0.000000,78.453200
358.519676,9963.556400,0.000000,78.453200
358.519981,10042.009600,156.906400,0.000000
358.520287,10042.009600,78.453200,0.000000
358.520593,10277.369200,235.359600,-862.985200
358.520898,10120.462800,78.453200,0.000000
358.521204,9963.556400,0.000000,78.453200
358.521509,9806.650000,0.000000,0.000000
358.521815,10042.009600,0.000000,0.000000
358.522121,9963.556400,0.000000,0.000000
358.522426,10198.916000,0.000000,0.000000
358.522732,10042.009600,0.000000,0.000000
358.523038,9963.556400,0.000000,0.000000
358.523343,9885.103200,0.000000,0.000000
358.523649,10355.822400,0.000000,0.000000
358.523954,10120.462800,0.000000,-235.359600
358.524260,9963.556400,0.000000,0.000000
358.524566,10042.009600,0.000000,0.000000
358.524871,10042.009600,0.000000,0.000000
358.525177,9963.556400,0.000000,0.000000
358.525482,10042.009600,0.000000,0.000000
358.525788,10120.462800,0.000000,0.000000
358.526094,9963.556400,0.000000,0.000000
358.526399,10042.009600,0.000000,0.000000
358.526705,9963.556400,0.000000,-235.359600
358.527011,10042.009600,0.000000,-392.266000
358.527316,10042.009600,0.000000,0.000000
358.527622,10042.009600,0.000000,0.000000
358.527927,9963.556400,0.000000,0.000000
358.528233,9963.556400,0.000000,0.000000
358.528539,10120.462800,0.000000,0.000000
358.528844,10042.009600,0.000000,-156.906400
358.529150,9963.556400,-235.359600,0.000000
358.529456,10042.009600,0.000000,-156.906400
358.529761,10042.009600,-235.359600,0.000000
358.530067,9885.103200,0.000000,-313.812800
358.530372,10042.009600,-313.812800,-235.359600
358.530678,10042.009600,-156.906400,0.000000
358.530984,10042.009600,0.000000,-235.359600
358.531289,10042.009600,0.000000,-235.359600
358.531595,10355.822400,0.000000,0.000000
358.531901,10042.009600,235.359600,0.000000
358.532206,10042.009600,0.000000,-235.359600
358.532512,9806.650000,0.000000,0.000000
358.532817,8943.664800,-78.453200,-313.812800
358.533123,9649.743600,-78.453200,235.359600
358.533429,9806.650000,-156.906400,-706.078800
358.533734,9414.384000,0.000000,-392.266000
358.534040,9728.196800,0.000000,78.453200
358.534346,9963.556400,0.000000,0.000000
358.534651,9963.556400,0.000000,0.000000
358.534957,9963.556400,0.000000,0.000000
358.535262,9885.103200,0.000000,0.000000
358.535568,9728.196800,78.453200,0.000000
358.535874,10042.009600,0.000000,-156.906400
358.536179,10042.009600,0.000000,0.000000
358.536485,9806.650000,78.453200,235.359600
358.536790,10042.009600,0.000000,0.000000
358.537096,9806.650000,156.906400,0.000000
358.537402,9963.556400,78.453200,0.000000
358.537707,9963.556400,0.000000,0.000000
358.538013,10512.728800,0.000000,313.812800
358.538319,10042.009600,78.453200,0.000000
358.538624,9963.556400,156.906400,0.000000
358.538930,10042.009600,78.453200,-156.906400
358.539235,9885.103200,0.000000,0.000000
358.539541,10120.462800,235.359600,-392.266000
358.539847,9963.556400,0.000000,0.000000
358.540152,9963.556400,0.000000,78.453200
358.540458,9963.556400,78.453200,0.000000
358.540764,10042.009600,0.000000,-156.906400
358.541069,10042.009600,0.000000,0.000000
358.541375,10042.009600,0.000000,-156.906400
358.541680,9963.556400,78.453200,-235.359600
358.541986,9963.556400,156.906400,0.000000
358.542292,10042.009600,156.906400,0.000000
358.542597,9806.650000,78.453200,0.000000
358.542903,9885.103200,78.453200,-235.359600
358.543209,9885.103200,235.359600,0.000000
358.543514,10120.462800,0.000000,0.000000
358.543820,10042.009600,0.000000,0.000000
358.544125,10042.009600,0.000000,0.000000
358.544431,9492.837200,313.812800,156.906400
358.544737,9963.556400,0.000000,0.000000
358.545042,10042.009600,0.000000,0.000000
358.545348,10042.009600,0.000000,0.000000
358.545653,9885.103200,0.000000,0.000000
358.545959,10434.275600,-470.719200,0.000000
358.546265,10042.009600,0.000000,-156.906400
358.546570,9806.650000,0.000000,0.000000
358.546876,10042.009600,78.453200,0.000000
358.547182,9885.103200,0.000000,78.453200
358.547487,10120.462800,0.000000,78.453200
358.547793,9885.103200,0.000000,0.000000
358.548098,10042.009600,-235.359600,0.000000
358.548404,10042.009600,0.000000,0.000000
358.548710,9963.556400,0.000000,0.000000
358.549015,10120.462800,-235.359600,0.000000
358.549321,9963.556400,0.000000,0.000000
358.549627,10042.009600,78.453200,78.453200
358.549932,10591.182000,-392.266000,0.000000
358.550238,9806.650000,0.000000,0.000000
358.550543,10198.916000,313.812800,470.719200
358.550849,10512.728800,-156.906400,156.906400
358.551155,10042.009600,0.000000,0.000000
358.551460,10512.728800,0.000000,0.000000
358.551766,10042.009600,235.359600,235.359600
358.552072,10120.462800,-392.266000,0.000000
358.552377,10042.009600,0.000000,0.000000
358.552683,10042.009600,0.000000,0.000000
358.552988,10042.009600,78.453200,78.453200
358.553294,10042.009600,0.000000,156.906400
358.553600,9963.556400,0.000000,78.453200
358.553905,10434.275600,-156.906400,0.000000
358.554211,10042.009600,0.000000,0.000000
358.554517,10042.009600,0.000000,0.000000
358.554822,9885.103200,78.453200,0.000000
358.555128,9885.103200,0.000000,0.000000
358.555433,9885.103200,0.000000,313.812800
358.555739,10120.462800,0.000000,78.453200
358.556045,9963.556400,0.000000,0.000000
358.556350,9963.556400,156.906400,0.000000
358.556656,9885.103200,392.266000,78.453200
358.556961,9728.196800,235.359600,392.266000
358.557267,9885.103200,156.906400,0.000000
358.557573,10042.009600,78.453200,0.000000
358.557878,9885.103200,0.000000,0.000000
358.558184,9963.556400,0.000000,0.000000
358.558490,10434.275600,156.906400,156.906400
358.558795,9963.556400,0.000000,0.000000
358.559101,10042.009600,0.000000,156.906400
358.559406,10042.009600,0.000000,0.000000
358.559712,10042.009600,0.000000,156.906400
358.560018,10120.462800,78.453200,-156.906400
358.560323,9885.103200,235.359600,78.453200
358.560629,9885.103200,0.000000,0.000000
358.560935,9963.556400,0.000000,156.906400
358.561240,10042.009600,-313.812800,235.359600
358.561546,9885.103200,-470.719200,235.359600
358.561851,9963.556400,0.000000,0.000000
358.562157,10042.009600,78.453200,78.453200
358.562463,10042.009600,0.000000,-156.906400
358.562768,10042.009600,0.000000,78.453200
358.563074,10042.009600,0.000000,549.172400
358.563380,10277.369200,0.000000,0.000000
358.563685,10042.009600,0.000000,0.000000
358.563991,9885.103200,0.000000,0.000000
358.564296,9963.556400,0.000000,0.000000
358.564602,9963.556400,78.453200,862.985200
358.564908,9728.196800,0.000000,0.000000
358.565213,9885.103200,0.000000,78.453200
358.565519,9885.103200,78.453200,156.906400
358.565825,10042.009600,0.000000,0.000000
358.566130,10042.009600,0.000000,0.000000
358.566436,10512.728800,0.000000,-549.172400
358.566741,9963.556400,-156.906400,0.000000
358.567047,10042.009600,0.000000,0.000000
358.567353,9885.103200,0.000000,0.000000
358.567658,9963.556400,-156.906400,156.906400
358.567964,10042.009600,78.453200,-235.359600
358.568269,9963.556400,-235.359600,-156.906400
358.568575,9963.556400,0.000000,549.172400
358.568881,10120.462800,-706.078800,0.000000
358.569186,9963.556400,156.906400,78.453200
358.569492,10042.009600,0.000000,1176.798000
358.569798,10904.994800,-470.719200,78.453200
358.570103,9963.556400,0.000000,156.906400
358.570409,10042.009600,0.000000,156.906400
358.570714,9963.556400,0.000000,78.453200
358.571020,10042.009600,156.906400,470.719200
358.571326,10120.462800,0.000000,0.000000
358.571631,10042.009600,0.000000,0.000000
358.571937,10120.462800,0.000000,0.000000
358.572243,10042.009600,78.453200,0.000000
358.572548,9806.650000,0.000000,156.906400
358.572854,9885.103200,78.453200,0.000000
358.573159,10042.009600,0.000000,78.453200
358.573465,9963.556400,0.000000,0.000000
358.573771,9885.103200,0.000000,0.000000
358.574076,9963.556400,78.453200,0.000000
358.574382,9963.556400,78.453200,235.359600
358.574688,10042.009600,156.906400,0.000000
358.574993,9963.556400,78.453200,0.000000
358.575299,10042.009600,0.000000,0.000000
358.575604,9963.556400,0.000000,0.000000
358.575910,10042.009600,78.453200,0.000000
358.576216,9963.556400,0.000000,0.000000
358.576521,9963.556400,0.000000,78.453200
358.576827,9963.556400,0.000000,0.000000
358.577132,10042.009600,0.000000,0.000000
358.577438,9963.556400,392.266000,470.719200
358.577744,10042.009600,0.000000,78.453200
358.578049,9806.650000,78.453200,0.000000
358.578355,9885.103200,78.453200,0.000000
358.578661,9885.103200,0.000000,156.906400
358.578966,9963.556400,313.812800,-313.812800
358.579272,10042.009600,0.000000,0.000000
358.579577,9885.103200,78.453200,0.000000
358.579883,9885.103200,0.000000,-78.453200
358.580189,10042.009600,0.000000,0.000000
358.580494,9963.556400,156.906400,-549.172400
358.580800,10042.009600,0.000000,0.000000
358.581106,9963.556400,0.000000,235.359600
358.581411,9728.196800,0.000000,78.453200
358.581717,9963.556400,0.000000,0.000000
358.582022,10277.369200,-156.906400,0.000000
358.582328,10120.462800,0.000000,0.000000
358.582634,9963.556400,0.000000,78.453200
358.582939,10120.462800,0.000000,0.000000
358.583245,10042.009600,0.000000,0.000000
358.583551,10198.916000,78.453200,235.359600
358.583856,10120.462800,78.453200,0.000000
358.584162,10120.462800,0.000000,0.000000
358.584467,9885.103200,78.453200,0.000000
358.584773,10042.009600,0.000000,0.000000
358.585079,10042.009600,156.906400,0.000000
358.585384,9806.650000,235.359600,78.453200
358.585690,10042.009600,235.359600,0.000000
358.585996,10042.009600,627.625600,235.359600
358.586301,10434.275600,235.359600,156.906400
358.586607,9963.556400,0.000000,-235.359600
358.586912,10355.822400,0.000000,-78.453200
358.587218,10277.369200,0.000000,-235.359600
358.587524,8943.664800,78.453200,-235.359600
358.587829,10042.009600,0.000000,-392.266000
358.588135,9806.650000,0.000000,0.000000
358.588440,10120.462800,156.906400,470.719200
358.588746,10042.009600,78.453200,0.000000
358.589052,9963.556400,0.000000,-156.906400
358.589357,10042.009600,78.453200,0.000000
358.589663,10042.009600,0.000000,0.000000
358.589969,9885.103200,235.359600,-235.359600
358.590274,9885.103200,78.453200,0.000000
358.590580,9885.103200,0.000000,0.000000
358.590885,9885.103200,0.000000,0.000000
358.591191,10042.009600,0.000000,0.000000
358.591497,9649.743600,0.000000,0.000000
358.591802,9963.556400,78.453200,0.000000
358.592108,9963.556400,0.000000,0.000000
358.592414,9963.556400,0.000000,0.000000
358.592719,9963.556400,78.453200,0.000000
358.593025,10042.009600,235.359600,862.985200
358.593330,9963.556400,0.000000,0.000000
358.593636,10042.009600,0.000000,0.000000
358.593942,10120.462800,0.000000,0.000000
358.594247,9963.556400,0.000000,0.000000
358.594553,10042.009600,0.000000,-235.359600
358.594859,9885.103200,627.625600,549.172400
358.595164,9885.103200,0.000000,0.000000
358.595470,10042.009600,0.000000,78.453200
358.595775,9885.103200,78.453200,0.000000
358.596081,10042.009600,0.000000,0.000000
358.596387,10120.462800,235.359600,-627.625600
358.596692,9963.556400,0.000000,0.000000
358.596998,10042.009600,0.000000,0.000000
358.597304,9728.196800,0.000000,0.000000
358.597609,10042.009600,0.000000,0.000000
358.597915,10277.369200,313.812800,313.812800
358.598220,9963.556400,0.000000,0.000000
358.598526,10120.462800,0.000000,0.000000
358.598832,10042.009600,78.453200,0.000000
358.599137,10042.009600,0.000000,-235.359600
358.599443,9963.556400,0.000000,470.719200
358.599748,9885.103200,-156.906400,78.453200
358.600054,10042.009600,-156.906400,-156.906400
358.600360,10042.009600,0.000000,0.000000
358.600665,10042.009600,78.453200,0.000000
358.600971,10042.009600,0.000000,0.000000
358.601277,10120.462800,0.000000,0.000000
358.601582,10042.009600,0.000000,-156.906400
358.601888,10120.462800,78.453200,-156.906400
358.602193,10042.009600,0.000000,0.000000
358.602499,10042.009600,78.453200,-235.359600
358.602805,9806.650000,-470.719200,-313.812800
358.603110,9963.556400,0.000000,-156.906400
358.603416,10042.009600,0.000000,-313.812800
358.603722,10042.009600,0.000000,0.000000
358.604027,9728.196800,78.453200,-549.172400
358.604333,8943.664800,-78.453200,-235.359600
358.604638,9885.103200,156.906400,78.453200
358.604944,9963.556400,1176.798000,-392.266000
358.605250,9963.556400,313.812800,0.000000
358.605555,10512.728800,78.453200,156.906400
358.605861,9728.196800,0.000000,-78.453200
358.606167,10512.728800,156.906400,0.000000
358.606472,9806.650000,0.000000,0.000000
358.606778,10042.009600,0.000000,0.000000
358.607083,10042.009600,0.000000,0.000000
358.607389,10198.916000,549.172400,0.000000
358.607695,9806.650000,0.000000,0.000000
358.608000,10042.009600,78.453200,-235.359600
358.608306,9963.556400,0.000000,0.000000
358.608611,10042.009600,0.000000,78.453200
358.608917,9649.743600,0.000000,313.812800
358.609223,10042.009600,156.906400,-235.359600
358.609528,9963.556400,78.453200,0.000000
358.609834,9963.556400,0.000000,0.000000
358.610140,9885.103200,0.000000,-235.359600
358.610445,10042.009600,470.719200,-156.906400
358.610751,10042.009600,235.359600,-392.266000
358.611056,9963.556400,0.000000,-156.906400
358.611362,10042.009600,0.000000,0.000000
358.611668,9963.556400,0.000000,0.000000
358.611973,9963.556400,78.453200,627.625600
358.612279,10042.009600,78.453200,0.000000
358.612585,10042.009600,0.000000,0.000000
358.612890,9963.556400,0.000000,0.000000
