##drops=0,overflows=0,time_per_sample=0.000305609,start_range=0.000059,end_range=0.000029
#time,accel_x,accel_y,accel_z
355.073227,9885.103200,0.000000,0.000000
355.073533,10355.822400,3216.581200,2981.221600
355.073839,10277.369200,3216.581200,2667.408800
355.074144,10198.916000,2981.221600,2510.502400
355.074450,10042.009600,2745.862000,2510.502400
355.074755,10198.916000,2196.689600,2588.955600
355.075061,10277.369200,2275.142800,2824.315200
355.075367,10042.009600,1569.064000,2902.768400
355.075672,9963.556400,1098.344800,3295.034400
355.075978,10042.009600,1412.157600,3608.847200
355.076283,10355.822400,1961.330000,3765.753600
355.076589,10983.448000,2118.236400,3844.206800
355.076895,10512.728800,3138.128000,3608.847200
355.077200,10591.182000,3451.940800,3373.487600
355.077506,10198.916000,3451.940800,3216.581200
355.077811,10434.275600,3059.674800,3216.581200
355.078117,10277.369200,2510.502400,3765.753600
355.078423,9963.556400,1961.330000,4079.566400
355.078728,10042.009600,1333.704400,4079.566400
355.079034,10120.462800,1176.798000,4314.926000
355.079340,10120.462800,1412.157600,4158.019600
355.079645,10042.009600,2510.502400,4236.472800
355.079951,10120.462800,2824.315200,3765.753600
355.080256,10042.009600,3295.034400,3451.940800
355.080562,10120.462800,3687.300400,3216.581200
355.080868,10042.009600,3608.847200,3059.674800
355.081173,10042.009600,2667.408800,3373.487600
355.081479,10277.369200,2196.689600,3295.034400
355.081784,9806.650000,1804.423600,3765.753600
355.082090,9885.103200,1569.064000,3608.847200
355.082396,10120.462800,1490.610800,4158.019600
355.082701,9963.556400,2039.783200,3922.660000
355.083007,10591.182000,1804.423600,3765.753600
355.083312,10042.009600,2745.862000,3216.581200
355.083618,9885.103200,3216.581200,2981.221600
355.083924,10198.916000,3765.753600,2824.315200
355.084229,10355.822400,2824.315200,3059.674800
355.084535,10042.009600,2275.142800,3765.753600
355.084840,10042.009600,2432.049200,3295.034400
355.085146,9963.556400,1961.330000,3295.034400
355.085452,9963.556400,1725.970400,3216.581200
355.085757,9885.103200,1961.330000,2824.315200
355.086063,9885.103200,2196.689600,2196.689600
355.086369,10042.009600,2196.689600,1961.330000
355.086674,10042.009600,2510.502400,1804.423600
355.086980,9414.384000,2902.768400,1882.876800
355.087285,10591.182000,2196.689600,2118.236400
355.087591,10198.916000,2432.049200,1490.610800
355.087897,10277.369200,2353.596000,2588.955600
355.088202,10434.275600,2118.236400,2510.502400
355.088508,9963.556400,2118.236400,2353.596000
355.088813,10669.635200,2510.502400,2510.502400
355.089119,10355.822400,2510.502400,3373.487600
355.089425,10904.994800,1804.423600,2353.596000
355.089730,10198.916000,3059.674800,2118.236400
355.090036,9963.556400,2196.689600,2510.502400
355.090341,10355.822400,1647.517200,2510.502400
355.090647,10434.275600,2196.689600,1490.610800
355.090953,10042.009600,2667.408800,1176.798000
355.091258,10198.916000,1961.330000,784.532000
355.091564,10042.009600,2196.689600,784.532000
355.091869,10042.009600,1961.330000,313.812800
355.092175,10042.009600,1804.423600,549.172400
355.092481,9885.103200,2118.236400,392.266000
355.092786,10591.182000,1490.610800,1255.251200
355.093092,10042.009600,784.532000,1412.157600
355.093398,10434.275600,1176.798000,1804.423600
355.093703,11061.901200,1176.798000,1804.423600
355.094009,9885.103200,1804.423600,1569.064000
355.094314,10512.728800,1412.157600,1647.517200
355.094620,10983.448000,2432.049200,862.985200
355.094926,9728.196800,1804.423600,784.532000
355.095231,10120.462800,2118.236400,392.266000
355.095537,10904.994800,392.266000,470.719200
355.095842,10042.009600,470.719200,862.985200
355.096148,9885.103200,392.266000,627.625600
355.096454,9728.196800,392.266000,862.985200
355.096759,9885.103200,627.625600,862.985200
355.097065,8943.664800,-313.812800,549.172400
355.097370,10591.182000,549.172400,1333.704400
355.097676,10904.994800,1333.704400,1333.704400
355.097982,9728.196800,1255.251200,784.532000
355.098287,9885.103200,2039.783200,706.078800
355.098593,10591.182000,1725.970400,1098.344800
355.098899,9728.196800,1412.157600,0.000000
355.099204,9963.556400,1176.798000,156.906400
355.099510,9963.556400,627.625600,392.266000
355.099815,9492.837200,78.453200,235.359600
355.100121,10277.369200,0.000000,1255.251200
355.100427,10042.009600,0.000000,784.532000
355.100732,9571.290400,627.625600,706.078800
355.101038,10120.462800,470.719200,627.625600
355.101343,10042.009600,627.625600,627.625600
355.101649,9728.196800,235.359600,470.719200
355.101955,9963.556400,706.078800,1176.798000
355.102260,9806.650000,1019.891600,549.172400
355.102566,10277.369200,784.532000,392.266000
355.102871,10120.462800,549.172400,156.906400
355.103177,9022.118000,706.078800,235.359600
355.103483,9335.930800,0.000000,235.359600
355.103788,10042.009600,0.000000,235.359600
355.104094,9963.556400,-235.359600,627.625600
355.104399,9571.290400,-470.719200,706.078800
355.104705,9963.556400,-313.812800,706.078800
355.105011,10434.275600,0.000000,392.266000
355.105316,10042.009600,392.266000,156.906400
355.105622,10042.009600,1098.344800,0.000000
355.105928,9414.384000,-627.625600,-156.906400
355.106233,11140.354400,0.000000,549.172400
355.106539,9885.103200,1333.704400,470.719200
355.106844,9649.743600,470.719200,-313.812800
355.107150,10512.728800,470.719200,-313.812800
355.107456,9806.650000,313.812800,-706.078800
355.107761,9179.024400,313.812800,-1490.610800
355.108067,8943.664800,941.438400,-706.078800
355.108372,10591.182000,-706.078800,-392.266000
355.108678,9806.650000,-549.172400,78.453200
355.108984,9885.103200,313.812800,784.532000
355.109289,9806.650000,235.359600,313.812800
355.109595,10983.448000,392.266000,1098.344800
355.109900,8472.945600,1882.876800,0.000000
355.110206,9179.024400,784.532000,313.812800
355.110512,9963.556400,0.000000,-235.359600
355.110817,9571.290400,706.078800,-784.532000
355.111123,9885.103200,-156.906400,-706.078800
355.111428,9885.103200,549.172400,-1019.891600
355.111734,9335.930800,-470.719200,-549.172400
355.112040,10512.728800,-549.172400,235.359600
355.112345,9806.650000,-470.719200,235.359600
355.112651,9414.384000,235.359600,313.812800
355.112957,9885.103200,1412.157600,392.266000
355.113262,9963.556400,1176.798000,-313.812800
355.113568,9649.743600,1412.157600,-862.985200
355.113873,9806.650000,1176.798000,-470.719200
355.114179,10042.009600,313.812800,-392.266000
355.114485,10198.916000,-235.359600,470.719200
355.114790,9806.650000,-470.719200,0.000000
355.115096,9963.556400,-706.078800,0.000000
355.115401,10120.462800,-392.266000,0.000000
355.115707,9963.556400,-470.719200,0.000000
355.116013,9885.103200,78.453200,0.000000
355.116318,10277.369200,470.719200,0.000000
355.116624,9728.196800,784.532000,-313.812800
355.116929,9885.103200,627.625600,0.000000
355.117235,10277.369200,78.453200,-313.812800
355.117541,10669.635200,78.453200,392.266000
355.117846,10198.916000,-156.906400,0.000000
355.118152,10042.009600,-470.719200,0.000000
355.118457,9728.196800,-784.532000,0.000000
355.118763,9963.556400,-941.438400,-313.812800
355.119069,9885.103200,-392.266000,78.453200
355.119374,9022.118000,0.000000,-470.719200
355.119680,10042.009600,0.000000,0.000000
355.119986,10120.462800,0.000000,0.000000
355.120291,10120.462800,0.000000,313.812800
355.120597,10042.009600,470.719200,0.000000
355.120902,10042.009600,156.906400,313.812800
355.121208,10042.009600,-392.266000,0.000000
355.121514,9649.743600,-156.906400,-549.172400
355.121819,10198.916000,-627.625600,-313.812800
355.122125,9885.103200,-627.625600,78.453200
355.122430,9885.103200,-470.719200,0.000000
355.122736,10198.916000,-862.985200,235.359600
355.123042,10042.009600,-470.719200,0.000000
355.123347,10277.369200,0.000000,-156.906400
355.123653,10042.009600,235.359600,0.000000
355.123958,9257.477600,1098.344800,156.906400
355.124264,10042.009600,235.359600,0.000000
355.124570,10198.916000,392.266000,0.000000
355.124875,9335.930800,0.000000,0.000000
355.125181,9963.556400,0.000000,-470.719200
355.125487,10277.369200,-78.453200,-392.266000
355.125792,9963.556400,-392.266000,0.000000
355.126098,10042.009600,-392.266000,0.000000
355.126403,9963.556400,0.000000,156.906400
355.126709,10512.728800,0.000000,0.000000
355.127015,9963.556400,78.453200,392.266000
355.127320,9649.743600,392.266000,235.359600
355.127626,10042.009600,392.266000,0.000000
355.127931,10042.009600,784.532000,0.000000
355.128237,9885.103200,392.266000,-156.906400
355.128543,10120.462800,549.172400,-313.812800
355.128848,9885.103200,-156.906400,-627.625600
355.129154,10042.009600,-313.812800,0.000000
355.129459,9885.103200,-235.359600,-235.359600
355.129765,9571.290400,-313.812800,-392.266000
355.130071,10434.275600,-235.359600,-470.719200
355.130376,9728.196800,0.000000,-392.266000
355.130682,9963.556400,0.000000,0.000000
355.130987,10120.462800,78.453200,235.359600
355.131293,9885.103200,235.359600,235.359600
355.131599,10120.462800,156.906400,862.985200
355.131904,9885.103200,392.266000,-78.453200
355.132210,10042.009600,0.000000,-470.719200
355.132516,9963.556400,235.359600,-549.172400
355.132821,9414.384000,-235.359600,-392.266000
355.133127,9571.290400,-313.812800,-549.172400
355.133432,10198.916000,-1019.891600,-313.812800
355.133738,9885.103200,-941.438400,0.000000
355.134044,10042.009600,-627.625600,0.000000
355.134349,10277.369200,-235.359600,0.000000
355.134655,10042.009600,0.000000,-313.812800
355.134960,10198.916000,156.906400,-156.906400
355.135266,9963.556400,156.906400,-470.719200
355.135572,9963.556400,78.453200,-470.719200
355.135877,10042.009600,-156.906400,-392.266000
355.136183,9963.556400,-549.172400,-313.812800
355.136488,10277.369200,-392.266000,-156.906400
355.136794,10277.369200,-941.438400,-235.359600
355.137100,10042.009600,-941.438400,0.000000
355.137405,5727.083600,-1804.423600,-1490.610800
355.137711,8629.852000,-549.172400,-941.438400
355.138016,11924.886400,-1019.891600,1255.251200
355.138322,9257.477600,0.000000,0.000000
355.138628,10355.822400,78.453200,-313.812800
355.138933,11218.807600,313.812800,0.000000
355.139239,9100.571200,0.000000,-313.812800
355.139545,9963.556400,0.000000,-549.172400
355.139850,10277.369200,0.000000,-1019.891600
355.140156,9492.837200,-156.906400,-392.266000
355.140461,10042.009600,-627.625600,-313.812800
355.140767,9492.837200,-549.172400,-313.812800
355.141073,9885.103200,-470.719200,-470.719200
355.141378,10277.369200,-313.812800,0.000000
355.141684,9257.477600,78.453200,-156.906400
355.141989,9728.196800,235.359600,0.000000
355.142295,10120.462800,549.172400,235.359600
355.142601,10355.822400,392.266000,78.453200
355.142906,9649.743600,235.359600,549.172400
355.143212,9571.290400,0.000000,313.812800
355.143517,10591.182000,549.172400,-1019.891600
355.143823,10042.009600,-549.172400,1098.344800
355.144129,9963.556400,-392.266000,235.359600
355.144434,10042.009600,-78.453200,-392.266000
355.144740,10120.462800,-470.719200,78.453200
355.145046,10042.009600,-627.625600,156.906400
355.145351,9963.556400,0.000000,78.453200
355.145657,10355.822400,0.000000,0.000000
355.145962,10355.822400,0.000000,0.000000
355.146268,10042.009600,78.453200,0.000000
355.146574,9649.743600,0.000000,0.000000
355.146879,9963.556400,0.000000,0.000000
355.147185,10198.916000,-392.266000,-156.906400
355.147490,9571.290400,470.719200,-392.266000
355.147796,10120.462800,0.000000,-470.719200
355.148102,9885.103200,-627.625600,-706.078800
355.148407,9806.650000,-470.719200,-627.625600
355.148713,9963.556400,-470.719200,-706.078800
355.149018,9963.556400,0.000000,78.453200
355.149324,9649.743600,78.453200,0.000000
355.149630,9963.556400,235.359600,156.906400
355.149935,9806.650000,392.266000,0.000000
355.150241,10434.275600,392.266000,-313.812800
355.150546,9806.650000,470.719200,-235.359600
355.150852,10277.369200,0.000000,-313.812800
355.151158,9885.103200,156.906400,-313.812800
355.151463,9806.650000,-235.359600,0.000000
355.151769,10120.462800,-235.359600,-156.906400
355.152075,9649.743600,-313.812800,0.000000
355.152380,10355.822400,-470.719200,-235.359600
355.152686,10042.009600,-549.172400,156.906400
355.152991,9728.196800,-470.719200,235.359600
355.153297,10434.275600,0.000000,235.359600
355.153603,10198.916000,313.812800,78.453200
355.153908,9885.103200,549.172400,78.453200
355.154214,10120.462800,313.812800,0.000000
355.154519,9806.650000,313.812800,-235.359600
355.154825,9885.103200,0.000000,-313.812800
355.155131,10042.009600,-235.359600,-627.625600
355.155436,9728.196800,-627.625600,-549.172400
355.155742,9728.196800,-392.266000,-235.359600
355.156047,10355.822400,0.000000,156.906400
355.156353,10277.369200,0.000000,392.266000
355.156659,10277.369200,-235.359600,706.078800
355.156964,10120.462800,313.812800,0.000000
355.157270,10512.728800,235.359600,392.266000
355.157575,10042.009600,470.719200,0.000000
355.157881,9963.556400,706.078800,392.266000
355.158187,10277.369200,0.000000,235.359600
355.158492,10042.009600,156.906400,0.000000
355.158798,9963.556400,0.000000,549.172400
355.159104,10120.462800,-470.719200,235.359600
355.159409,10277.369200,-156.906400,470.719200
355.159715,10198.916000,-313.812800,156.906400
355.160020,9963.556400,0.000000,78.453200
355.160326,10512.728800,392.266000,470.719200
355.160632,10512.728800,0.000000,706.078800
355.160937,10042.009600,549.172400,627.625600
355.161243,10277.369200,392.266000,0.000000
355.161548,9963.556400,0.000000,0.000000
355.161854,9100.571200,0.000000,0.000000
355.162160,9806.650000,-1255.251200,-627.625600
355.162465,9728.196800,-235.359600,0.000000
355.162771,9257.477600,-235.359600,0.000000
355.163076,10042.009600,-706.078800,235.359600
355.163382,9885.103200,0.000000,-862.985200
355.163688,10355.822400,235.359600,0.000000
355.163993,9806.650000,78.453200,-313.812800
355.164299,9649.743600,313.812800,0.000000
355.164605,10042.009600,0.000000,-235.359600
355.164910,9257.477600,-784.532000,0.000000
355.165216,9335.930800,0.000000,235.359600
355.165521,10826.541600,0.000000,0.000000
355.165827,9571.290400,-1019.891600,0.000000
355.166133,10198.916000,0.000000,627.625600
355.166438,10277.369200,392.266000,549.172400
355.166744,9492.837200,156.906400,78.453200
355.167049,10277.369200,78.453200,470.719200
355.167355,10277.369200,392.266000,0.000000
355.167661,9571.290400,78.453200,0.000000
355.167966,10277.369200,706.078800,-941.438400
355.168272,10042.009600,392.266000,0.000000
355.168577,9649.743600,0.000000,-313.812800
355.168883,10042.009600,156.906400,156.906400
355.169189,9806.650000,313.812800,156.906400
355.169494,9963.556400,156.906400,78.453200
355.169800,9963.556400,313.812800,-313.812800
355.170105,9806.650000,156.906400,0.000000
355.170411,9885.103200,78.453200,78.453200
355.170717,10042.009600,313.812800,0.000000
355.171022,9885.103200,156.906400,0.000000
355.171328,10277.369200,470.719200,-313.812800
355.171634,9963.556400,313.812800,78.453200
355.171939,10120.462800,0.000000,313.812800
355.172245,10042.009600,78.453200,549.172400
355.172550,9963.556400,392.266000,235.359600
355.172856,10042.009600,156.906400,549.172400
355.173162,10120.462800,627.625600,549.172400
355.173467,10748.088400,0.000000,392.266000
355.173773,9728.196800,1019.891600,78.453200
355.174078,10120.462800,784.532000,392.266000
355.174384,9885.103200,1019.891600,392.266000
355.174690,10042.009600,156.906400,156.906400
355.174995,9806.650000,0.000000,0.000000
355.175301,9806.650000,0.000000,0.000000
355.175606,10198.916000,0.000000,0.000000
355.175912,9492.837200,-392.266000,0.000000
355.176218,9963.556400,313.812800,-470.719200
355.176523,10277.369200,235.359600,-470.719200
355.176829,10042.009600,235.359600,-392.266000
355.177134,10748.088400,-313.812800,313.812800
355.177440,10042.009600,2118.236400,156.906400
355.177746,9100.571200,549.172400,0.000000
355.178051,10904.994800,235.359600,-313.812800
355.178357,10591.182000,0.000000,0.000000
355.178663,10198.916000,235.359600,0.000000
355.178968,11218.807600,0.000000,392.266000
355.179274,10042.009600,470.719200,0.000000
355.179579,10042.009600,235.359600,-156.906400
355.179885,9885.103200,-392.266000,156.906400
355.180191,9728.196800,313.812800,-392.266000
355.180496,9335.930800,235.359600,0.000000
355.180802,10042.009600,-78.453200,-392.266000
355.181107,9885.103200,470.719200,0.000000
355.181413,9414.384000,78.453200,-235.359600
355.181719,9492.837200,549.172400,-235.359600
355.182024,9963.556400,0.000000,-313.812800
355.182330,9885.103200,-470.719200,0.000000
355.182635,9492.837200,0.000000,0.000000
355.182941,10120.462800,-156.906400,235.359600
355.183247,9963.556400,235.359600,0.000000
355.183552,10042.009600,78.453200,0.000000
355.183858,10512.728800,941.438400,156.906400
355.184164,10042.009600,627.625600,78.453200
355.184469,10198.916000,313.812800,0.000000
355.184775,10748.088400,470.719200,235.359600
355.185080,10120.462800,470.719200,156.906400
355.185386,10904.994800,313.812800,0.000000
355.185692,10512.728800,627.625600,549.172400
355.185997,10042.009600,78.453200,392.266000
355.186303,10512.728800,470.719200,0.000000
355.186608,10120.462800,156.906400,235.359600
355.186914,9728.196800,0.000000,-313.812800
355.187220,9414.384000,156.906400,78.453200
355.187525,10042.009600,-392.266000,0.000000
355.187831,9492.837200,0.000000,0.000000
355.188136,9806.650000,0.000000,0.000000
355.188442,9492.837200,-470.719200,156.906400
355.188748,9492.837200,0.000000,235.359600
355.189053,10042.009600,-156.906400,0.000000
355.189359,9492.837200,0.000000,0.000000
355.189664,9963.556400,0.000000,0.000000
355.189970,9728.196800,0.000000,78.453200
355.190276,9963.556400,0.000000,549.172400
355.190581,10042.009600,-78.453200,156.906400
355.190887,10042.009600,0.000000,0.000000
355.191193,10120.462800,-392.266000,78.453200
355.191498,10434.275600,-549.172400,0.000000
355.191804,9806.650000,0.000000,78.453200
355.192109,9335.930800,313.812800,-1176.798000
355.192415,10042.009600,-1019.891600,549.172400
355.192721,9963.556400,-313.812800,235.359600
355.193026,10355.822400,-470.719200,-156.906400
355.193332,9571.290400,0.000000,156.906400
355.193637,9335.930800,-313.812800,-156.906400
355.193943,9571.290400,0.000000,-549.172400
355.194249,10042.009600,0.000000,-313.812800
355.194554,10042.009600,235.359600,-235.359600
355.194860,9728.196800,0.000000,-313.812800
355.195165,9728.196800,0.000000,0.000000
355.195471,9963.556400,-235.359600,235.359600
355.195777,9885.103200,0.000000,-156.906400
355.196082,9414.384000,156.906400,-313.812800
355.196388,9806.650000,-78.453200,235.359600
355.196693,9963.556400,-392.266000,313.812800
355.196999,9885.103200,-1255.251200,-235.359600
355.197305,9963.556400,-235.359600,0.000000
355.197610,8708.305200,-392.266000,-78.453200
355.197916,9963.556400,-1176.798000,-235.359600
355.198222,9492.837200,-78.453200,-235.359600
355.198527,9885.103200,-156.906400,862.985200
355.198833,10904.994800,-549.172400,0.000000
355.199138,9257.477600,156.906400,-392.266000
355.199444,10120.462800,0.000000,-784.532000
355.199750,10355.822400,-862.985200,235.359600
355.200055,10277.369200,-1019.891600,156.906400
355.200361,9885.103200,-549.172400,0.000000
355.200666,9649.743600,-313.812800,156.906400
355.200972,10198.916000,0.000000,-156.906400
355.201278,10120.462800,392.266000,0.000000
355.201583,10277.369200,0.000000,0.000000
355.201889,9963.556400,0.000000,0.000000
355.202194,9885.103200,235.359600,0.000000
355.202500,10355.822400,78.453200,-156.906400
355.202806,9963.556400,-313.812800,0.000000
355.203111,9728.196800,-235.359600,0.000000
355.203417,10277.369200,-313.812800,156.906400
355.203722,10042.009600,-392.266000,0.000000
355.204028,9885.103200,0.000000,0.000000
355.204334,9963.556400,0.000000,313.812800
355.204639,10512.728800,-313.812800,-392.266000
355.204945,9963.556400,0.000000,-313.812800
355.205251,9963.556400,78.453200,-156.906400
355.205556,9571.290400,0.000000,0.000000
355.205862,9963.556400,313.812800,0.000000
355.206167,9885.103200,392.266000,-313.812800
355.206473,9649.743600,156.906400,-313.812800
355.206779,9806.650000,-156.906400,-235.359600
355.207084,10042.009600,-627.625600,-313.812800
355.207390,9885.103200,78.453200,-313.812800
355.207695,9728.196800,0.000000,-235.359600
355.208001,9728.196800,0.000000,0.000000
355.208307,10042.009600,0.000000,0.000000
355.208612,9728.196800,0.000000,78.453200
355.208918,9885.103200,549.172400,0.000000
355.209223,9806.650000,392.266000,784.532000
355.209529,10042.009600,235.359600,156.906400
355.209835,10042.009600,0.000000,156.906400
355.210140,10120.462800,0.000000,78.453200
355.210446,10277.369200,78.453200,0.000000
355.210752,9885.103200,-470.719200,0.000000
355.211057,10042.009600,78.453200,0.000000
355.211363,10042.009600,235.359600,0.000000
355.211668,10042.009600,0.000000,0.000000
355.211974,10355.822400,78.453200,0.000000
355.212280,9414.384000,706.078800,313.812800
355.212585,9806.650000,156.906400,0.000000
355.212891,10355.822400,-313.812800,156.906400
355.213196,10042.009600,-156.906400,313.812800
355.213502,9963.556400,0.000000,235.359600
355.213808,10120.462800,0.000000,862.985200
355.214113,10512.728800,0.000000,549.172400
355.214419,9649.743600,0.000000,235.359600
355.214724,10198.916000,0.000000,156.906400
355.215030,9885.103200,313.812800,-392.266000
355.215336,10277.369200,313.812800,0.000000
355.215641,10198.916000,-156.906400,0.000000
355.215947,9885.103200,0.000000,0.000000
355.216252,10512.728800,-156.906400,0.000000
355.216558,10120.462800,-156.906400,313.812800
355.216864,10042.009600,-941.438400,-78.453200
355.217169,9885.103200,235.359600,0.000000
355.217475,9022.118000,-627.625600,-470.719200
355.217781,9963.556400,0.000000,0.000000
355.218086,10198.916000,0.000000,0.000000
355.218392,9885.103200,627.625600,-235.359600
355.218697,10042.009600,0.000000,0.000000
355.219003,10042.009600,235.359600,0.000000
355.219309,9806.650000,78.453200,-156.906400
355.219614,8472.945600,627.625600,-1569.064000
355.219920,11297.260800,78.453200,784.532000
355.220225,9414.384000,549.172400,0.000000
355.220531,10512.728800,235.359600,-235.359600
355.220837,10669.635200,-313.812800,-156.906400
355.221142,9649.743600,470.719200,78.453200
355.221448,9806.650000,78.453200,0.000000
355.221753,10355.822400,470.719200,78.453200
355.222059,9492.837200,235.359600,-392.266000
355.222365,10042.009600,156.906400,0.000000
355.222670,9492.837200,0.000000,-313.812800
355.222976,9728.196800,0.000000,0.000000
355.223281,10355.822400,0.000000,156.906400
355.223587,9649.743600,156.906400,313.812800
355.223893,10120.462800,392.266000,549.172400
355.224198,10042.009600,392.266000,470.719200
355.224504,9963.556400,627.625600,156.906400
355.224810,9728.196800,470.719200,-235.359600
355.225115,10669.635200,392.266000,0.000000
355.225421,9649.743600,313.812800,-549.172400
355.225726,10512.728800,-156.906400,470.719200
355.226032,9728.196800,0.000000,627.625600
355.226338,9335.930800,-156.906400,78.453200
355.226643,10277.369200,235.359600,0.000000
355.226949,9885.103200,0.000000,0.000000
355.227254,10198.916000,0.000000,0.000000
355.227560,9885.103200,0.000000,0.000000
355.227866,10042.009600,156.906400,0.000000
355.228171,9963.556400,0.000000,-313.812800
355.228477,10042.009600,0.000000,78.453200
355.228782,10042.009600,0.000000,0.000000
355.229088,10512.728800,-235.359600,0.000000
355.229394,10042.009600,0.000000,-313.812800
355.229699,9963.556400,0.000000,0.000000
355.230005,10355.822400,-313.812800,470.719200
355.230311,10042.009600,0.000000,-313.812800
355.230616,9963.556400,78.453200,-313.812800
355.230922,9806.650000,-235.359600,-156.906400
355.231227,10042.009600,156.906400,-235.359600
355.231533,10198.916000,-392.266000,0.000000
355.231839,10120.462800,0.000000,-235.359600
355.232144,9649.743600,0.000000,0.000000
355.232450,9963.556400,0.000000,-549.172400
355.232755,10042.009600,0.000000,-627.625600
355.233061,9963.556400,549.172400,-706.078800
355.233367,9100.571200,78.453200,-470.719200
355.233672,10904.994800,-235.359600,0.000000
355.233978,10277.369200,-78.453200,-313.812800
355.234283,9806.650000,-313.812800,0.000000
355.234589,10042.009600,-470.719200,0.000000
355.234895,10198.916000,-1255.251200,235.359600
355.235200,10042.009600,235.359600,0.000000
355.235506,9649.743600,235.359600,0.000000
355.235811,10042.009600,78.453200,156.906400
355.236117,10355.822400,-156.906400,156.906400
355.236423,9728.196800,470.719200,0.000000
355.236728,10042.009600,313.812800,0.000000
355.237034,9492.837200,-156.906400,-313.812800
355.237340,10277.369200,0.000000,0.000000
355.237645,10042.009600,0.000000,0.000000
355.237951,9649.743600,-156.906400,78.453200
355.238256,9492.837200,156.906400,-313.812800
355.238562,10120.462800,235.359600,-313.812800
355.238868,9649.743600,235.359600,-392.266000
355.239173,9806.650000,0.000000,-313.812800
355.239479,10198.916000,78.453200,235.359600
355.239784,9963.556400,-156.906400,78.453200
355.240090,10042.009600,-627.625600,156.906400
355.240396,10042.009600,-235.359600,0.000000
355.240701,9571.290400,78.453200,0.000000
355.241007,10355.822400,0.000000,-313.812800
355.241312,10042.009600,313.812800,0.000000
355.241618,10042.009600,392.266000,0.000000
355.241924,10355.822400,235.359600,-156.906400
355.242229,9885.103200,235.359600,0.000000
355.242535,10120.462800,78.453200,-235.359600
355.242840,9963.556400,0.000000,-392.266000
355.243146,10198.916000,-313.812800,78.453200
355.243452,10198.916000,313.812800,-392.266000
355.243757,9728.196800,-706.078800,0.000000
355.244063,10120.462800,-235.359600,549.172400
355.244369,10591.182000,235.359600,392.266000
355.244674,9492.837200,235.359600,0.000000
355.244980,9963.556400,313.812800,-470.719200
355.245285,10120.462800,0.000000,-313.812800
355.245591,9335.930800,-313.812800,-156.906400
355.245897,9649.743600,-392.266000,-235.359600
355.246202,9806.650000,-627.625600,0.000000
355.246508,10042.009600,-470.719200,0.000000
355.246813,9492.837200,0.000000,-156.906400
355.247119,10591.182000,-549.172400,0.000000
355.247425,9492.837200,78.453200,0.000000
355.247730,9335.930800,313.812800,-549.172400
355.248036,9806.650000,392.266000,0.000000
355.248341,9728.196800,0.000000,0.000000
355.248647,9963.556400,78.453200,0.000000
355.248953,9963.556400,-392.266000,-392.266000
355.249258,10042.009600,0.000000,235.359600
355.249564,10042.009600,0.000000,156.906400
355.249870,10042.009600,0.000000,313.812800
355.250175,9963.556400,235.359600,235.359600
355.250481,10042.009600,313.812800,78.453200
355.250786,9885.103200,0.000000,313.812800
355.251092,10277.369200,235.359600,0.000000
355.251398,9492.837200,549.172400,156.906400
355.251703,9885.103200,0.000000,0.000000
355.252009,9963.556400,-549.172400,-941.438400
355.252314,8943.664800,-549.172400,862.985200
355.252620,10042.009600,0.000000,0.000000
355.252926,10042.009600,549.172400,-470.719200
355.253231,9728.196800,0.000000,0.000000
355.253537,10120.462800,235.359600,0.000000
355.253842,10434.275600,0.000000,235.359600
355.254148,10042.009600,0.000000,470.719200
355.254454,10042.009600,-235.359600,156.906400
355.254759,10277.369200,1569.064000,0.000000
355.255065,12238.699200,1019.891600,1176.798000
355.255370,8708.305200,392.266000,627.625600
355.255676,10748.088400,784.532000,470.719200
355.255982,11375.714000,235.359600,549.172400
355.256287,9885.103200,0.000000,392.266000
355.256593,10042.009600,235.359600,235.359600
355.256899,8865.211600,549.172400,313.812800
355.257204,9885.103200,0.000000,0.000000
355.257510,9806.650000,235.359600,-313.812800
355.257815,9728.196800,862.985200,-235.359600
355.258121,10198.916000,1176.798000,0.000000
355.258427,10277.369200,235.359600,156.906400
355.258732,9806.650000,313.812800,313.812800
355.259038,10434.275600,470.719200,706.078800
355.259343,9885.103200,235.359600,78.453200
355.259649,9885.103200,392.266000,156.906400
355.259955,10198.916000,941.438400,-156.906400
355.260260,9728.196800,78.453200,0.000000
355.260566,9885.103200,470.719200,0.000000
355.260871,9885.103200,392.266000,0.000000
355.261177,9414.384000,706.078800,-235.359600
355.261483,10355.822400,235.359600,235.359600
355.261788,9335.930800,235.359600,-313.812800
355.262094,9649.743600,470.719200,-549.172400
355.262399,10198.916000,784.532000,-392.266000
355.262705,9806.650000,549.172400,-313.812800
355.263011,9728.196800,706.078800,-235.359600
355.263316,9963.556400,549.172400,0.000000
355.263622,9649.743600,313.812800,-156.906400
355.263928,9963.556400,78.453200,0.000000
355.264233,10277.369200,470.719200,0.000000
355.264539,9414.384000,941.438400,-549.172400
355.264844,10042.009600,706.078800,-706.078800
355.265150,10669.635200,627.625600,313.812800
355.265456,10042.009600,313.812800,0.000000
355.265761,10355.822400,-156.906400,0.000000
355.266067,10277.369200,0.000000,1019.891600
355.266372,10826.541600,0.000000,784.532000
355.266678,10355.822400,0.000000,392.266000
355.266984,10277.369200,0.000000,627.625600
355.267289,10198.916000,-392.266000,549.172400
355.267595,10042.009600,-470.719200,549.172400
355.267900,10277.369200,-392.266000,706.078800
355.268206,9885.103200,-470.719200,235.359600
355.268512,10042.009600,-235.359600,470.719200
355.268817,10042.009600,-862.985200,156.906400
355.269123,9885.103200,156.906400,313.812800
355.269429,10042.009600,0.000000,0.000000
355.269734,9885.103200,0.000000,-392.266000
355.270040,10198.916000,0.000000,0.000000
355.270345,10042.009600,235.359600,-470.719200
355.270651,9571.290400,-470.719200,-862.985200
355.270957,9571.290400,-392.266000,-1255.251200
355.271262,9806.650000,-235.359600,-1019.891600
355.271568,9806.650000,156.906400,-1019.891600
355.271873,9571.290400,235.359600,-862.985200
355.272179,9963.556400,0.000000,-706.078800
355.272485,9963.556400,0.000000,-470.719200
355.272790,9885.103200,-156.906400,-784.532000
355.273096,9885.103200,0.000000,-470.719200
355.273401,9649.743600,0.000000,-235.359600
355.273707,9649.743600,0.000000,-470.719200
355.274013,10748.088400,0.000000,78.453200
355.274318,9963.556400,0.000000,156.906400
355.274624,9963.556400,-313.812800,78.453200
355.274929,10277.369200,0.000000,313.812800
355.275235,9963.556400,0.000000,78.453200
355.275541,9963.556400,156.906400,470.719200
355.275846,10042.009600,0.000000,156.906400
355.276152,10042.009600,235.359600,0.000000
355.276458,10042.009600,78.453200,78.453200
355.276763,9885.103200,0.000000,78.453200
355.277069,10042.009600,313.812800,-470.719200
355.277374,9649.743600,0.000000,0.000000
355.277680,10042.009600,-235.359600,235.359600
355.277986,9885.103200,156.906400,0.000000
355.278291,10120.462800,78.453200,156.906400
355.278597,10042.009600,392.266000,313.812800
355.278902,10120.462800,470.719200,-392.266000
355.279208,10042.009600,78.453200,0.000000
355.279514,10042.009600,0.000000,0.000000
355.279819,10042.009600,-235.359600,-156.906400
355.280125,9728.196800,0.000000,78.453200
355.280430,10591.182000,-156.906400,235.359600
355.280736,10198.916000,0.000000,235.359600
355.281042,9963.556400,470.719200,235.359600
355.281347,10198.916000,392.266000,235.359600
355.281653,9885.103200,78.453200,0.000000
355.281958,10512.728800,549.172400,0.000000
355.282264,9649.743600,156.906400,0.000000
355.282570,9963.556400,0.000000,0.000000
355.282875,9728.196800,-313.812800,-313.812800
355.283181,10120.462800,-706.078800,235.359600
355.283487,9806.650000,-549.172400,235.359600
355.283792,9728.196800,0.000000,0.000000
355.284098,9728.196800,-235.359600,0.000000
355.284403,10042.009600,-156.906400,0.000000
355.284709,9806.650000,78.453200,-392.266000
355.285015,10042.009600,0.000000,0.000000
355.285320,10512.728800,-313.812800,-235.359600
355.285626,9885.103200,-392.266000,78.453200
355.285931,10042.009600,-156.906400,627.625600
355.286237,10277.369200,-549.172400,235.359600
355.286543,10042.009600,-941.438400,392.266000
355.286848,10434.275600,-1098.344800,313.812800
355.287154,9728.196800,-549.172400,549.172400
355.287459,10277.369200,-1255.251200,-392.266000
355.287765,9649.743600,549.172400,-392.266000
355.288071,9885.103200,235.359600,1019.891600
355.288376,11532.620400,-549.172400,706.078800
355.288682,10042.009600,392.266000,-313.812800
355.288987,9963.556400,78.453200,-627.625600
355.289293,10198.916000,-313.812800,0.000000
355.289599,10120.462800,-235.359600,0.000000
355.289904,9963.556400,-470.719200,470.719200
355.290210,10042.009600,0.000000,78.453200
355.290516,10277.369200,-470.719200,0.000000
355.290821,9728.196800,-313.812800,-156.906400
355.291127,9492.837200,78.453200,-549.172400
355.291432,10120.462800,0.000000,0.000000
355.291738,10042.009600,0.000000,-627.625600
355.292044,10042.009600,0.000000,-313.812800
355.292349,10042.009600,156.906400,0.000000
355.292655,9963.556400,0.000000,-156.906400
355.292960,10042.009600,0.000000,-549.172400
355.293266,10042.009600,-784.532000,0.000000
355.293572,9649.743600,-313.812800,-313.812800
355.293877,9728.196800,78.453200,78.453200
355.294183,9649.743600,549.172400,-313.812800
355.294488,10434.275600,470.719200,-392.266000
355.294794,10277.369200,-313.812800,-862.985200
355.295100,9885.103200,0.000000,313.812800
355.295405,10355.822400,0.000000,78.453200
355.295711,9571.290400,313.812800,-313.812800
355.296017,9806.650000,78.453200,-392.266000
355.296322,10198.916000,862.985200,-156.906400
355.296628,9649.743600,0.000000,0.000000
355.296933,9885.103200,156.906400,0.000000
355.297239,10434.275600,156.906400,313.812800
355.297545,10198.916000,78.453200,392.266000
355.297850,10512.728800,392.266000,392.266000
355.298156,9963.556400,0.000000,0.000000
355.298461,10042.009600,78.453200,-156.906400
355.298767,9649.743600,0.000000,-470.719200
355.299073,9806.650000,-156.906400,-313.812800
355.299378,10198.916000,-235.359600,0.000000
355.299684,9571.290400,0.000000,-313.812800
355.299989,9885.103200,-156.906400,-313.812800
355.300295,10042.009600,-392.266000,-392.266000
355.300601,10120.462800,-470.719200,0.000000
355.300906,10120.462800,0.000000,0.000000
355.301212,10042.009600,-235.359600,78.453200
355.301517,10042.009600,0.000000,235.359600
355.301823,10042.009600,0.000000,313.812800
355.302129,9885.103200,156.906400,0.000000
355.302434,10120.462800,-78.453200,-1176.798000
355.302740,9806.650000,0.000000,-156.906400
355.303046,9728.196800,-549.172400,0.000000
355.303351,9728.196800,0.000000,-549.172400
355.303657,10512.728800,-392.266000,-235.359600
355.303962,9022.118000,-470.719200,0.000000
355.304268,10042.009600,-313.812800,156.906400
355.304574,10120.462800,-392.266000,-235.359600
355.304879,9963.556400,-470.719200,0.000000
355.305185,10042.009600,-78.453200,78.453200
355.305490,10669.635200,0.000000,-392.266000
355.305796,10591.182000,313.812800,0.000000
355.306102,9414.384000,-78.453200,0.000000
355.306407,9963.556400,0.000000,-78.453200
355.306713,10120.462800,-392.266000,0.000000
355.307018,9963.556400,-784.532000,862.985200
355.307324,9649.743600,-313.812800,-235.359600
355.307630,10277.369200,-470.719200,78.453200
355.307935,9179.024400,-235.359600,-235.359600
355.308241,9257.477600,156.906400,-549.172400
355.308546,10669.635200,627.625600,-470.719200
355.308852,9492.837200,862.985200,-549.172400
355.309158,9963.556400,313.812800,-706.078800
355.309463,9806.650000,0.000000,-627.625600
355.309769,9414.384000,-392.266000,-313.812800
355.310075,10042.009600,78.453200,-706.078800
355.310380,13650.856800,1019.891600,156.906400
355.310686,9100.571200,-706.078800,-470.719200
355.310991,8237.586000,0.000000,-470.719200
355.311297,10355.822400,-392.266000,-235.359600
355.311603,10277.369200,392.266000,-941.438400
355.311908,9806.650000,392.266000,156.906400
355.312214,8865.211600,862.985200,-862.985200
355.312519,10434.275600,0.000000,235.359600
355.312825,10983.448000,-627.625600,549.172400
355.313131,10355.822400,-313.812800,627.625600
355.313436,9492.837200,-549.172400,313.812800
355.313742,9963.556400,78.453200,78.453200
355.314047,10277.369200,-627.625600,0.000000
355.314353,10198.916000,235.359600,0.000000
355.314659,10198.916000,0.000000,0.000000
355.314964,10042.009600,313.812800,313.812800
355.315270,9571.290400,313.812800,-156.906400
355.315576,10277.369200,0.000000,0.000000
355.315881,9963.556400,-627.625600,0.000000
355.316187,10198.916000,-156.906400,235.359600
355.316492,9963.556400,-706.078800,78.453200
355.316798,9963.556400,-313.812800,313.812800
355.317104,10198.916000,-156.906400,392.266000
355.317409,9571.290400,0.000000,0.000000
355.317715,10198.916000,235.359600,-313.812800
355.318020,10748.088400,156.906400,-313.812800
355.318326,10042.009600,0.000000,0.000000
355.318632,9100.571200,78.453200,-627.625600
355.318937,10669.635200,0.000000,0.000000
355.319243,10434.275600,-313.812800,313.812800
355.319548,9885.103200,0.000000,313.812800
355.319854,10355.822400,0.000000,78.453200
355.320160,9885.103200,0.000000,0.000000
355.320465,9728.196800,-156.906400,-156.906400
355.320771,10042.009600,78.453200,-156.906400
355.321076,9728.196800,392.266000,0.000000
355.321382,9571.290400,0.000000,-313.812800
355.321688,10042.009600,0.000000,0.000000
355.321993,10198.916000,0.000000,313.812800
355.322299,9963.556400,0.000000,549.172400
355.322605,9963.556400,0.000000,549.172400
355.322910,10042.009600,0.000000,1490.610800
355.323216,11061.901200,-627.625600,706.078800
355.323521,10042.009600,1019.891600,156.906400
355.323827,9885.103200,-156.906400,627.625600
355.324133,10355.822400,-392.266000,549.172400
355.324438,10120.462800,-313.812800,392.266000
355.324744,9963.556400,156.906400,-235.359600
355.325049,9571.290400,0.000000,-313.812800
355.325355,9885.103200,0.000000,0.000000
355.325661,9728.196800,0.000000,-156.906400
355.325966,9571.290400,313.812800,-784.532000
355.326272,9806.650000,235.359600,-627.625600
355.326577,10042.009600,-470.719200,-392.266000
355.326883,9492.837200,549.172400,-235.359600
355.327189,9728.196800,1019.891600,-627.625600
355.327494,10434.275600,0.000000,0.000000
355.327800,9414.384000,392.266000,-392.266000
355.328105,8865.211600,-313.812800,-862.985200
355.328411,11611.073600,-313.812800,470.719200
355.328717,9649.743600,470.719200,0.000000
355.329022,10042.009600,313.812800,-392.266000
355.329328,10120.462800,0.000000,78.453200
355.329634,10042.009600,-235.359600,235.359600
355.329939,9728.196800,78.453200,0.000000
355.330245,9963.556400,78.453200,-156.906400
355.330550,9963.556400,392.266000,235.359600
355.330856,10042.009600,0.000000,0.000000
355.331162,10042.009600,-549.172400,313.812800
355.331467,10042.009600,0.000000,549.172400
355.331773,9963.556400,-549.172400,156.906400
355.332078,10042.009600,-392.266000,313.812800
355.332384,10434.275600,0.000000,784.532000
355.332690,10120.462800,-470.719200,235.359600
355.332995,10042.009600,0.000000,78.453200
355.333301,9728.196800,235.359600,-470.719200
355.333606,9885.103200,0.000000,-313.812800
355.333912,10277.369200,-235.359600,156.906400
355.334218,9335.930800,-392.266000,-156.906400
355.334523,10042.009600,-235.359600,-313.812800
355.334829,10042.009600,156.906400,78.453200
355.335135,9806.650000,78.453200,0.000000
355.335440,10198.916000,313.812800,0.000000
355.335746,10434.275600,627.625600,-313.812800
355.336051,9728.196800,470.719200,-313.812800
355.336357,10434.275600,156.906400,-156.906400
355.336663,9885.103200,235.359600,-392.266000
355.336968,9885.103200,235.359600,-470.719200
355.337274,10198.916000,235.359600,-1255.251200
355.337579,10042.009600,78.453200,-235.359600
355.337885,9728.196800,235.359600,-313.812800
355.338191,9885.103200,156.906400,-313.812800
355.338496,9885.103200,392.266000,-235.359600
355.338802,10198.916000,1019.891600,-313.812800
355.339107,9885.103200,470.719200,0.000000
355.339413,10042.009600,470.719200,156.906400
355.339719,9885.103200,470.719200,0.000000
355.340024,10042.009600,784.532000,235.359600
355.340330,10434.275600,392.266000,706.078800
355.340635,9885.103200,0.000000,235.359600
355.340941,9885.103200,-156.906400,235.359600
355.341247,9885.103200,-1098.344800,156.906400
355.341552,9728.196800,-156.906400,0.000000
355.341858,8786.758400,-78.453200,235.359600
355.342164,9963.556400,-1098.344800,706.078800
355.342469,9885.103200,549.172400,0.000000
355.342775,9806.650000,313.812800,392.266000
355.343080,10277.369200,941.438400,156.906400
355.343386,10042.009600,78.453200,627.625600
355.343692,10277.369200,-313.812800,313.812800
355.343997,10277.369200,-392.266000,0.000000
355.344303,9571.290400,0.000000,78.453200
355.344608,9885.103200,-392.266000,235.359600
355.344914,10355.822400,0.000000,392.266000
355.345220,10042.009600,156.906400,78.453200
355.345525,9963.556400,549.172400,-156.906400
355.345831,10042.009600,470.719200,0.000000
355.346136,10120.462800,549.172400,0.000000
355.346442,10277.369200,549.172400,0.000000
355.346748,10198.916000,-235.359600,470.719200
355.347053,10042.009600,-235.359600,0.000000
355.347359,9649.743600,-392.266000,0.000000
355.347664,10042.009600,-313.812800,78.453200
355.347970,10277.369200,0.000000,156.906400
355.348276,9492.837200,156.906400,470.719200
355.348581,9728.196800,0.000000,0.000000
355.348887,10042.009600,235.359600,156.906400
355.349193,9728.196800,78.453200,0.000000
355.349498,9728.196800,78.453200,0.000000
355.349804,9257.477600,313.812800,549.172400
355.350109,9728.196800,-313.812800,0.000000
355.350415,9885.103200,-470.719200,78.453200
355.350721,10042.009600,-235.359600,156.906400
355.351026,9885.103200,-313.812800,470.719200
355.351332,9963.556400,0.000000,313.812800
355.351637,10277.369200,392.266000,470.719200
355.351943,10198.916000,313.812800,235.359600
355.352249,10042.009600,862.985200,78.453200
355.352554,9414.384000,392.266000,-235.359600
355.352860,10042.009600,0.000000,-392.266000
355.353165,9963.556400,0.000000,-313.812800
355.353471,9885.103200,-627.625600,0.000000
355.353777,9806.650000,-549.172400,78.453200
355.354082,10042.009600,-470.719200,156.906400
355.354388,8943.664800,313.812800,-706.078800
355.354694,11532.620400,0.000000,627.625600
355.354999,9414.384000,0.000000,235.359600
355.355305,10042.009600,0.000000,0.000000
355.355610,10669.635200,78.453200,0.000000
355.355916,10042.009600,156.906400,0.000000
355.356222,9885.103200,627.625600,0.000000
355.356527,10042.009600,-470.719200,-156.906400
355.356833,10120.462800,-549.172400,0.000000
355.357138,9885.103200,-1176.798000,0.000000
355.357444,9335.930800,-1176.798000,0.000000
355.357750,10042.009600,-862.985200,235.359600
355.358055,10512.728800,-470.719200,0.000000
355.358361,9492.837200,0.000000,-235.359600
355.358666,9963.556400,0.000000,78.453200
355.358972,9885.103200,0.000000,0.000000
355.359278,10198.916000,784.532000,-78.453200
355.359583,10042.009600,0.000000,0.000000
355.359889,10042.009600,78.453200,392.266000
355.360194,10277.369200,0.000000,-78.453200
355.360500,9963.556400,-470.719200,0.000000
355.360806,8786.758400,78.453200,-313.812800
355.361111,10042.009600,0.000000,-235.359600
355.361417,10355.822400,392.266000,-156.906400
355.361723,10042.009600,392.266000,0.000000
355.362028,10042.009600,470.719200,0.000000
355.362334,10277.369200,235.359600,0.000000
355.362639,10042.009600,862.985200,-470.719200
355.362945,10277.369200,392.266000,78.453200
355.363251,9728.196800,470.719200,-235.359600
355.363556,9963.556400,313.812800,0.000000
355.363862,9806.650000,0.000000,-392.266000
355.364167,10042.009600,0.000000,0.000000
355.364473,9335.930800,0.000000,0.000000
355.364779,10042.009600,0.000000,-313.812800
355.365084,10120.462800,392.266000,0.000000
355.365390,9728.196800,78.453200,-392.266000
355.365695,9806.650000,235.359600,-706.078800
355.366001,10042.009600,235.359600,-313.812800
355.366307,9649.743600,0.000000,-313.812800
355.366612,9571.290400,0.000000,-235.359600
355.366918,10042.009600,-470.719200,0.000000
355.367223,10198.916000,-549.172400,0.000000
355.367529,10277.369200,-470.719200,156.906400
355.367835,10120.462800,0.000000,156.906400
355.368140,10042.009600,0.000000,0.000000
355.368446,9806.650000,-313.812800,0.000000
355.368752,10198.916000,-470.719200,549.172400
355.369057,10120.462800,0.000000,-156.906400
355.369363,10042.009600,-313.812800,-235.359600
355.369668,9885.103200,-549.172400,0.000000
355.369974,9885.103200,-627.625600,-156.906400
355.370280,9885.103200,-313.812800,0.000000
355.370585,10042.009600,-235.359600,0.000000
355.370891,10198.916000,-549.172400,-392.266000
355.371196,9257.477600,-2039.783200,-392.266000
355.371502,10042.009600,-549.172400,-627.625600
355.371808,10198.916000,-156.906400,0.000000
355.372113,9335.930800,0.000000,-392.266000
355.372419,10042.009600,-235.359600,-470.719200
355.372724,10669.635200,-392.266000,-1019.891600
355.373030,9649.743600,-156.906400,-784.532000
355.373336,10042.009600,0.000000,78.453200
355.373641,9728.196800,-235.359600,313.812800
355.373947,9963.556400,-1098.344800,78.453200
355.374252,9806.650000,0.000000,0.000000
355.374558,9963.556400,78.453200,0.000000
355.374864,9963.556400,0.000000,-156.906400
355.375169,10983.448000,235.359600,-156.906400
355.375475,9571.290400,235.359600,-235.359600
355.375781,9100.571200,78.453200,-392.266000
355.376086,9806.650000,0.000000,78.453200
355.376392,9335.930800,-235.359600,0.000000
355.376697,9728.196800,-156.906400,-235.359600
355.377003,9571.290400,0.000000,78.453200
355.377309,9335.930800,549.172400,-941.438400
355.377614,10042.009600,549.172400,-78.453200
355.377920,11218.807600,0.000000,-156.906400
355.378225,9728.196800,1176.798000,-235.359600
355.378531,10042.009600,392.266000,784.532000
355.378837,10512.728800,0.000000,0.000000
355.379142,10355.822400,156.906400,-235.359600
355.379448,10042.009600,0.000000,-392.266000
355.379753,9963.556400,0.000000,0.000000
355.380059,10355.822400,0.000000,-156.906400
355.380365,10512.728800,0.000000,0.000000
355.380670,10120.462800,235.359600,0.000000
355.380976,10042.009600,156.906400,-235.359600
355.381282,10355.822400,549.172400,0.000000
355.381587,10277.369200,78.453200,-627.625600
355.381893,9806.650000,0.000000,-313.812800
355.382198,10042.009600,-156.906400,156.906400
355.382504,9963.556400,-235.359600,235.359600
355.382810,10120.462800,-392.266000,470.719200
355.383115,10120.462800,-156.906400,235.359600
355.383421,9885.103200,78.453200,156.906400
355.383726,10120.462800,392.266000,0.000000
355.384032,9885.103200,313.812800,0.000000
355.384338,9649.743600,235.359600,0.000000
355.384643,10042.009600,0.000000,156.906400
355.384949,9728.196800,-470.719200,0.000000
355.385254,10355.822400,-784.532000,627.625600
355.385560,9963.556400,-313.812800,78.453200
355.385866,9649.743600,0.000000,-392.266000
355.386171,10042.009600,-313.812800,-549.172400
355.386477,9728.196800,0.000000,-706.078800
355.386782,9492.837200,156.906400,-235.359600
355.387088,10277.369200,0.000000,235.359600
355.387394,10198.916000,-313.812800,156.906400
355.387699,9728.196800,78.453200,1019.891600
355.388005,10826.541600,78.453200,784.532000
355.388311,9728.196800,78.453200,0.000000
355.388616,10120.462800,549.172400,235.359600
355.388922,10120.462800,235.359600,0.000000
355.389227,10042.009600,235.359600,0.000000
355.389533,9728.196800,392.266000,78.453200
355.389839,9806.650000,-156.906400,78.453200
355.390144,9649.743600,0.000000,0.000000
355.390450,10355.822400,0.000000,235.359600
355.390755,9885.103200,156.906400,313.812800
355.391061,9414.384000,784.532000,549.172400
355.391367,9963.556400,784.532000,78.453200
355.391672,10120.462800,706.078800,392.266000
355.391978,10042.009600,235.359600,392.266000
355.392283,10042.009600,313.812800,235.359600
355.392589,9806.650000,784.532000,235.359600
355.392895,9728.196800,235.359600,-392.266000
355.393200,9963.556400,235.359600,-470.719200
355.393506,9571.290400,156.906400,-392.266000
355.393811,9963.556400,235.359600,0.000000
355.394117,10277.369200,78.453200,-156.906400
355.394423,9806.650000,470.719200,78.453200
355.394728,10120.462800,549.172400,156.906400
355.395034,10042.009600,549.172400,78.453200
355.395340,10277.369200,784.532000,-1176.798000
355.395645,9649.743600,784.532000,-156.906400
355.395951,9963.556400,0.000000,-313.812800
355.396256,10120.462800,235.359600,-941.438400
355.396562,10042.009600,0.000000,235.359600
355.396868,9963.556400,-784.532000,-156.906400
355.397173,9963.556400,-627.625600,-313.812800
355.397479,9806.650000,0.000000,-706.078800
355.397784,9571.290400,0.000000,-470.719200
355.398090,9806.650000,0.000000,-392.266000
355.398396,10042.009600,156.906400,0.000000
355.398701,10355.822400,0.000000,0.000000
355.399007,10198.916000,0.000000,235.359600
355.399312,10042.009600,-156.906400,78.453200
355.399618,10277.369200,-235.359600,0.000000
355.399924,9571.290400,-156.906400,0.000000
355.400229,9885.103200,-784.532000,-549.172400
355.400535,10042.009600,-1098.344800,-862.985200
355.400841,10042.009600,-706.078800,0.000000
355.401146,9885.103200,-627.625600,0.000000
355.401452,10042.009600,-313.812800,78.453200
355.401757,10198.916000,-313.812800,0.000000
355.402063,10277.369200,470.719200,549.172400
355.402369,10277.369200,1098.344800,78.453200
355.402674,10120.462800,1019.891600,78.453200
355.402980,10355.822400,549.172400,156.906400
355.403285,10512.728800,0.000000,392.266000
355.403591,10355.822400,-392.266000,156.906400
355.403897,9963.556400,-392.266000,313.812800
355.404202,9885.103200,-627.625600,0.000000
355.404508,10120.462800,0.000000,0.000000
355.404813,9728.196800,78.453200,-313.812800
355.405119,9649.743600,392.266000,0.000000
355.405425,9885.103200,784.532000,-313.812800
355.405730,9963.556400,549.172400,-235.359600
355.406036,9649.743600,706.078800,-313.812800
355.406341,9963.556400,392.266000,-156.906400
355.406647,10042.009600,549.172400,-392.266000
355.406953,10042.009600,1176.798000,-392.266000
355.407258,9022.118000,-235.359600,-941.438400
355.407564,9649.743600,0.000000,0.000000
355.407870,10120.462800,0.000000,0.000000
355.408175,10277.369200,470.719200,0.000000
355.408481,9257.477600,0.000000,0.000000
355.408786,9963.556400,78.453200,0.000000
355.409092,10434.275600,156.906400,78.453200
355.409398,9963.556400,784.532000,0.000000
355.409703,9885.103200,549.172400,78.453200
355.410009,10355.822400,392.266000,470.719200
355.410314,10042.009600,0.000000,549.172400
355.410620,10120.462800,-627.625600,549.172400
355.410926,10277.369200,-235.359600,313.812800
355.411231,9492.837200,-156.906400,0.000000
355.411537,9728.196800,-235.359600,313.812800
355.411842,10120.462800,-156.906400,-156.906400
355.412148,9806.650000,-392.266000,-235.359600
355.412454,9885.103200,-549.172400,0.000000
355.412759,10042.009600,-549.172400,313.812800
355.413065,10198.916000,-549.172400,78.453200
355.413370,10042.009600,-235.359600,1412.157600
355.413676,10434.275600,0.000000,156.906400
355.413982,9806.650000,-156.906400,470.719200
355.414287,9806.650000,0.000000,0.000000
355.414593,10198.916000,-549.172400,235.359600
355.414899,9963.556400,-1255.251200,313.812800
355.415204,10512.728800,-706.078800,0.000000
355.415510,9728.196800,-470.719200,392.266000
355.415815,9885.103200,-470.719200,313.812800
355.416121,10120.462800,-862.985200,235.359600
355.416427,10198.916000,235.359600,313.812800
355.416732,10042.009600,-313.812800,235.359600
355.417038,10198.916000,-313.812800,549.172400
355.417343,11218.807600,0.000000,627.625600
355.417649,9806.650000,-313.812800,313.812800
355.417955,10198.916000,-313.812800,235.359600
355.418260,10748.088400,0.000000,0.000000
355.418566,9649.743600,-392.266000,0.000000
355.418871,9649.743600,78.453200,-313.812800
355.419177,10277.369200,313.812800,0.000000
355.419483,9728.196800,235.359600,-1176.798000
355.419788,9885.103200,470.719200,0.000000
355.420094,10042.009600,313.812800,0.000000
355.420400,10042.009600,392.266000,0.000000
355.420705,9806.650000,156.906400,0.000000
355.421011,9963.556400,235.359600,0.000000
355.421316,9885.103200,470.719200,156.906400
355.421622,10042.009600,78.453200,235.359600
355.421928,10042.009600,235.359600,235.359600
355.422233,5805.536800,-156.906400,-1804.423600
355.422539,11218.807600,-156.906400,156.906400
355.422844,9100.571200,0.000000,627.625600
355.423150,9571.290400,156.906400,0.000000
355.423456,10669.635200,235.359600,0.000000
355.423761,10042.009600,313.812800,392.266000
355.424067,9179.024400,470.719200,0.000000
355.424372,10983.448000,235.359600,-235.359600
355.424678,9885.103200,235.359600,78.453200
355.424984,9806.650000,-313.812800,0.000000
355.425289,9885.103200,470.719200,470.719200
355.425595,9649.743600,0.000000,156.906400
355.425900,9885.103200,0.000000,549.172400
355.426206,9806.650000,156.906400,156.906400
355.426512,9414.384000,-235.359600,0.000000
355.426817,9885.103200,-156.906400,0.000000
355.427123,9885.103200,-392.266000,-235.359600
355.427429,9649.743600,0.000000,-392.266000
355.427734,10042.009600,-627.625600,0.000000
355.428040,10042.009600,-549.172400,0.000000
355.428345,9885.103200,-470.719200,0.000000
355.428651,9885.103200,-235.359600,-470.719200
355.428957,10042.009600,0.000000,-627.625600
355.429262,10434.275600,-392.266000,-156.906400
355.429568,9963.556400,-235.359600,-313.812800
355.429873,9963.556400,-235.359600,-392.266000
355.430179,10042.009600,-392.266000,-235.359600
355.430485,10355.822400,-313.812800,-235.359600
355.430790,10669.635200,0.000000,-549.172400
355.431096,10042.009600,392.266000,0.000000
355.431401,10042.009600,313.812800,0.000000
355.431707,10198.916000,0.000000,78.453200
355.432013,9885.103200,392.266000,-627.625600
355.432318,9571.290400,0.000000,862.985200
355.432624,10591.182000,235.359600,313.812800
355.432929,10198.916000,1804.423600,-78.453200
355.433235,10042.009600,392.266000,78.453200
355.433541,10198.916000,0.000000,-313.812800
355.433846,10826.541600,-392.266000,78.453200
355.434152,9885.103200,313.812800,78.453200
355.434458,9963.556400,156.906400,-235.359600
355.434763,10512.728800,313.812800,0.000000
355.435069,10042.009600,392.266000,0.000000
355.435374,9885.103200,78.453200,392.266000
355.435680,9649.743600,313.812800,235.359600
355.435986,10042.009600,470.719200,-313.812800
355.436291,9571.290400,470.719200,0.000000
355.436597,10120.462800,313.812800,0.000000
355.436902,10355.822400,156.906400,470.719200
355.437208,10042.009600,313.812800,-313.812800
355.437514,9728.196800,706.078800,-392.266000
355.437819,9728.196800,0.000000,-156.906400
355.438125,10277.369200,-313.812800,0.000000
355.438430,10042.009600,0.000000,0.000000
355.438736,9728.196800,78.453200,0.000000
355.439042,9728.196800,78.453200,0.000000
355.439347,10042.009600,0.000000,78.453200
355.439653,9649.743600,313.812800,0.000000
355.439959,9885.103200,78.453200,0.000000
355.440264,10669.635200,392.266000,313.812800
355.440570,9728.196800,-235.359600,-156.906400
355.440875,9963.556400,-706.078800,0.000000
355.441181,10120.462800,-549.172400,156.906400
355.441487,9885.103200,-627.625600,78.453200
355.441792,10120.462800,-156.906400,0.000000
355.442098,9963.556400,-156.906400,156.906400
355.442403,10120.462800,-235.359600,392.266000
355.442709,10042.009600,-313.812800,235.359600
355.443015,9963.556400,0.000000,235.359600
355.443320,10355.822400,470.719200,392.266000
355.443626,9649.743600,156.906400,78.453200
355.443931,10042.009600,0.000000,313.812800
355.444237,10355.822400,78.453200,235.359600
355.444543,10277.369200,78.453200,235.359600
355.444848,9571.290400,0.000000,-313.812800
355.445154,10277.369200,0.000000,0.000000
355.445459,7688.413600,-1569.064000,-1255.251200
355.445765,10042.009600,-941.438400,-235.359600
355.446071,9963.556400,-627.625600,0.000000
355.446376,8943.664800,-627.625600,-235.359600
355.446682,9728.196800,-392.266000,-941.438400
355.446988,10355.822400,0.000000,-313.812800
355.447293,9414.384000,0.000000,-235.359600
355.447599,9885.103200,0.000000,-313.812800
355.447904,10198.916000,235.359600,156.906400
355.448210,9649.743600,156.906400,470.719200
355.448516,10042.009600,-235.359600,156.906400
355.448821,9806.650000,0.000000,392.266000
355.449127,10042.009600,0.000000,549.172400
355.449432,10042.009600,235.359600,470.719200
355.449738,10277.369200,0.000000,313.812800
355.450044,10198.916000,-313.812800,0.000000
355.450349,9414.384000,470.719200,392.266000
355.450655,9728.196800,-235.359600,549.172400
355.450960,10120.462800,0.000000,0.000000
355.451266,9571.290400,392.266000,156.906400
355.451572,9806.650000,78.453200,235.359600
355.451877,10042.009600,0.000000,0.000000
355.452183,9885.103200,0.000000,0.000000
355.452488,10198.916000,0.000000,-156.906400
355.452794,9963.556400,0.000000,-78.453200
355.453100,10042.009600,-156.906400,0.000000
355.453405,9806.650000,-392.266000,0.000000
355.453711,10042.009600,-627.625600,0.000000
355.454017,9806.650000,0.000000,156.906400
355.454322,9885.103200,470.719200,235.359600
355.454628,10277.369200,78.453200,0.000000
355.454933,9257.477600,0.000000,-392.266000
355.455239,10120.462800,-392.266000,-235.359600
355.455545,9492.837200,313.812800,-470.719200
355.455850,10042.009600,-235.359600,-392.266000
355.456156,10277.369200,-549.172400,-392.266000
355.456461,9963.556400,-549.172400,-470.719200
355.456767,9963.556400,549.172400,-941.438400
355.457073,10434.275600,-862.985200,-549.172400
355.457378,9728.196800,-235.359600,0.000000
355.457684,10669.635200,784.532000,-784.532000
355.457989,8943.664800,-862.985200,-1333.704400
355.458295,9963.556400,-549.172400,392.266000
355.458601,10198.916000,235.359600,0.000000
355.458906,10042.009600,-156.906400,0.000000
355.459212,9963.556400,549.172400,-156.906400
355.459517,10434.275600,-156.906400,0.000000
355.459823,9728.196800,-313.812800,-235.359600
355.460129,10355.822400,-156.906400,0.000000
355.460434,9885.103200,0.000000,-235.359600
355.460740,10277.369200,0.000000,0.000000
355.461046,10277.369200,0.000000,-392.266000
355.461351,10120.462800,156.906400,-156.906400
355.461657,9806.650000,0.000000,-313.812800
355.461962,10120.462800,-235.359600,-156.906400
355.462268,9492.837200,235.359600,-627.625600
355.462574,9492.837200,235.359600,-313.812800
355.462879,9492.837200,156.906400,-549.172400
355.463185,9571.290400,0.000000,-392.266000
355.463490,10042.009600,0.000000,-392.266000
355.463796,10042.009600,-156.906400,0.000000
355.464102,9885.103200,549.172400,-549.172400
355.464407,10042.009600,-156.906400,0.000000
355.464713,9963.556400,-156.906400,0.000000
355.465018,9963.556400,0.000000,0.000000
355.465324,9806.650000,156.906400,0.000000
355.465630,10355.822400,0.000000,0.000000
355.465935,10042.009600,313.812800,-235.359600
355.466241,10120.462800,0.000000,-156.906400
355.466547,10042.009600,0.000000,-235.359600
355.466852,9806.650000,0.000000,-313.812800
355.467158,10826.541600,78.453200,78.453200
355.467463,9963.556400,-706.078800,-470.719200
355.467769,9728.196800,0.000000,0.000000
355.468075,9728.196800,78.453200,-78.453200
355.468380,10904.994800,-313.812800,0.000000
355.468686,10434.275600,-392.266000,156.906400
355.468991,10591.182000,-470.719200,313.812800
355.469297,10042.009600,392.266000,235.359600
355.469603,10120.462800,627.625600,-156.906400
355.469908,10042.009600,549.172400,0.000000
355.470214,10120.462800,470.719200,0.000000
355.470519,9571.290400,0.000000,0.000000
355.470825,9885.103200,0.000000,0.000000
355.471131,10277.369200,-392.266000,392.266000
355.471436,9492.837200,-706.078800,470.719200
355.471742,10120.462800,-862.985200,627.625600
355.472047,9885.103200,-1019.891600,706.078800
355.472353,9649.743600,0.000000,470.719200
355.472659,9806.650000,392.266000,-156.906400
355.472964,9492.837200,78.453200,78.453200
355.473270,10042.009600,313.812800,0.000000
355.473576,9806.650000,0.000000,0.000000
355.473881,10120.462800,0.000000,549.172400
355.474187,9806.650000,549.172400,78.453200
355.474492,9885.103200,392.266000,0.000000
355.474798,10042.009600,235.359600,78.453200
355.475104,9963.556400,235.359600,1019.891600
355.475409,9806.650000,392.266000,0.000000
355.475715,10042.009600,470.719200,235.359600
355.476020,10042.009600,549.172400,235.359600
355.476326,9649.743600,627.625600,470.719200
355.476632,9963.556400,549.172400,784.532000
355.476937,9963.556400,784.532000,549.172400
355.477243,10198.916000,392.266000,470.719200
355.477548,9885.103200,313.812800,392.266000
355.477854,9963.556400,78.453200,78.453200
355.478160,10198.916000,549.172400,-1019.891600
355.478465,10120.462800,392.266000,313.812800
355.478771,9728.196800,235.359600,78.453200
355.479076,9963.556400,470.719200,78.453200
355.479382,10042.009600,392.266000,78.453200
355.479688,10042.009600,784.532000,-156.906400
355.479993,9963.556400,0.000000,0.000000
355.480299,9885.103200,78.453200,470.719200
355.480605,9885.103200,0.000000,235.359600
355.480910,9885.103200,0.000000,470.719200
355.481216,10591.182000,470.719200,392.266000
355.481521,9649.743600,1490.610800,-549.172400
355.481827,10904.994800,0.000000,784.532000
355.482133,9335.930800,392.266000,627.625600
355.482438,10120.462800,0.000000,0.000000
355.482744,10434.275600,156.906400,235.359600
355.483049,10042.009600,0.000000,392.266000
355.483355,9492.837200,313.812800,235.359600
355.483661,10277.369200,235.359600,0.000000
355.483966,10120.462800,313.812800,0.000000
355.484272,9963.556400,470.719200,0.000000
355.484577,10042.009600,0.000000,156.906400
355.484883,10198.916000,0.000000,235.359600
355.485189,10355.822400,0.000000,-862.985200
355.485494,9728.196800,0.000000,-706.078800
355.485800,9963.556400,0.000000,-235.359600
355.486106,9571.290400,0.000000,78.453200
355.486411,10042.009600,0.000000,78.453200
355.486717,10042.009600,0.000000,627.625600
355.487022,9100.571200,235.359600,1019.891600
355.487328,11218.807600,-470.719200,0.000000
355.487634,10277.369200,392.266000,0.000000
355.487939,9806.650000,627.625600,0.000000
355.488245,10042.009600,0.000000,0.000000
355.488550,9571.290400,0.000000,0.000000
355.488856,10042.009600,0.000000,156.906400
355.489162,9963.556400,235.359600,0.000000
355.489467,9649.743600,78.453200,0.000000
355.489773,10591.182000,156.906400,156.906400
355.490078,10198.916000,78.453200,-392.266000
355.490384,9885.103200,235.359600,0.000000
355.490690,9963.556400,627.625600,-549.172400
355.490995,10434.275600,706.078800,-392.266000
355.491301,10198.916000,0.000000,-235.359600
355.491606,9963.556400,0.000000,0.000000
355.491912,9885.103200,78.453200,-235.359600
355.492218,9963.556400,0.000000,-470.719200
355.492523,10277.369200,156.906400,-235.359600
355.492829,9963.556400,470.719200,-235.359600
355.493135,9885.103200,78.453200,-392.266000
355.493440,9885.103200,235.359600,-313.812800
355.493746,10042.009600,0.000000,0.000000
355.494051,9885.103200,0.000000,0.000000
355.494357,9963.556400,-156.906400,-313.812800
355.494663,9885.103200,-156.906400,0.000000
355.494968,9571.290400,-627.625600,-156.906400
355.495274,9571.290400,0.000000,0.000000
355.495579,10042.009600,392.266000,0.000000
355.495885,9806.650000,-313.812800,78.453200
355.496191,9728.196800,-313.812800,78.453200
355.496496,10042.009600,-313.812800,156.906400
355.496802,9963.556400,-313.812800,0.000000
355.497107,9649.743600,0.000000,0.000000
355.497413,10042.009600,-392.266000,-313.812800
355.497719,9963.556400,-706.078800,-156.906400
355.498024,10042.009600,-470.719200,0.000000
355.498330,10591.182000,-549.172400,78.453200
355.498635,10042.009600,-470.719200,392.266000
355.498941,10120.462800,-156.906400,0.000000
355.499247,10120.462800,0.000000,0.000000
355.499552,10042.009600,0.000000,-235.359600
355.499858,10042.009600,-156.906400,-392.266000
355.500164,9885.103200,-235.359600,-392.266000
355.500469,10277.369200,-1019.891600,78.453200
355.500775,9806.650000,-784.532000,0.000000
355.501080,10198.916000,-470.719200,0.000000
355.501386,10198.916000,-706.078800,78.453200
355.501692,9963.556400,-313.812800,0.000000
355.501997,9257.477600,-235.359600,156.906400
355.502303,10198.916000,-235.359600,78.453200
355.502608,9963.556400,-313.812800,0.000000
355.502914,9806.650000,-549.172400,706.078800
355.503220,10042.009600,0.000000,549.172400
355.503525,9649.743600,706.078800,-78.453200
355.503831,9885.103200,313.812800,78.453200
355.504136,9963.556400,549.172400,-706.078800
355.504442,9649.743600,0.000000,-706.078800
355.504748,10355.822400,156.906400,-627.625600
355.505053,9414.384000,78.453200,-549.172400
355.505359,9728.196800,0.000000,-235.359600
355.505665,10120.462800,-549.172400,-313.812800
355.505970,9963.556400,-470.719200,0.000000
355.506276,9963.556400,-392.266000,0.000000
355.506581,10904.994800,0.000000,470.719200
355.506887,9492.837200,-235.359600,-156.906400
355.507193,10591.182000,156.906400,235.359600
355.507498,9492.837200,470.719200,235.359600
355.507804,9806.650000,0.000000,78.453200
355.508109,10120.462800,156.906400,0.000000
355.508415,10591.182000,-470.719200,0.000000
355.508721,9414.384000,0.000000,0.000000
355.509026,9649.743600,-235.359600,-235.359600
355.509332,10198.916000,-235.359600,0.000000
355.509637,10042.009600,-470.719200,470.719200
355.509943,9492.837200,0.000000,470.719200
355.510249,10198.916000,0.000000,313.812800
355.510554,9885.103200,0.000000,0.000000
355.510860,9728.196800,0.000000,-392.266000
355.511165,9885.103200,313.812800,0.000000
355.511471,9885.103200,0.000000,0.000000
355.511777,9885.103200,-235.359600,0.000000
355.512082,9963.556400,-627.625600,0.000000
355.512388,9649.743600,-549.172400,-156.906400
355.512694,10277.369200,-470.719200,-156.906400
355.512999,10277.369200,-941.438400,-235.359600
355.513305,9963.556400,-313.812800,0.000000
355.513610,10277.369200,-235.359600,0.000000
355.513916,10042.009600,-392.266000,78.453200
355.514222,10198.916000,0.000000,313.812800
355.514527,10042.009600,0.000000,784.532000
355.514833,10042.009600,-549.172400,78.453200
355.515138,10277.369200,-392.266000,0.000000
355.515444,10198.916000,0.000000,0.000000
355.515750,9728.196800,0.000000,0.000000
355.516055,10120.462800,156.906400,-706.078800
355.516361,10042.009600,78.453200,-235.359600
355.516666,10042.009600,0.000000,0.000000
355.516972,10042.009600,0.000000,0.000000
355.517278,9885.103200,235.359600,-235.359600
355.517583,10904.994800,156.906400,-313.812800
355.517889,9963.556400,941.438400,-313.812800
355.518194,9728.196800,392.266000,-392.266000
355.518500,10434.275600,0.000000,156.906400
355.518806,9728.196800,549.172400,0.000000
355.519111,9649.743600,156.906400,235.359600
355.519417,10669.635200,-235.359600,-313.812800
355.519723,9571.290400,1019.891600,-784.532000
355.520028,10042.009600,235.359600,0.000000
355.520334,9179.024400,627.625600,-392.266000
355.520639,8708.305200,-706.078800,-1098.344800
355.520945,10669.635200,470.719200,392.266000
355.521251,9728.196800,549.172400,156.906400
355.521556,9414.384000,-392.266000,-784.532000
355.521862,9649.743600,-78.453200,0.000000
355.522167,10120.462800,235.359600,235.359600
355.522473,10042.009600,1176.798000,-78.453200
355.522779,9885.103200,627.625600,235.359600
355.523084,10669.635200,706.078800,627.625600
355.523390,10120.462800,313.812800,784.532000
355.523695,10669.635200,0.000000,156.906400
355.524001,9885.103200,0.000000,862.985200
355.524307,10434.275600,-392.266000,392.266000
355.524612,9885.103200,0.000000,0.000000
355.524918,10120.462800,313.812800,-156.906400
355.525223,9963.556400,156.906400,-392.266000
355.525529,9649.743600,78.453200,0.000000
355.525835,10826.541600,-627.625600,470.719200
355.526140,9885.103200,156.906400,0.000000
355.526446,9571.290400,235.359600,0.000000
355.526752,10591.182000,156.906400,235.359600
355.527057,9885.103200,0.000000,0.000000
355.527363,10042.009600,627.625600,-78.453200
355.527668,10198.916000,627.625600,0.000000
355.527974,10042.009600,235.359600,0.000000
355.528280,9885.103200,549.172400,-392.266000
355.528585,9728.196800,0.000000,0.000000
355.528891,9728.196800,470.719200,0.000000
355.529196,9963.556400,313.812800,0.000000
355.529502,9885.103200,706.078800,-235.359600
355.529808,10042.009600,313.812800,78.453200
355.530113,9963.556400,0.000000,0.000000
355.530419,10042.009600,0.000000,-313.812800
355.530724,9963.556400,392.266000,627.625600
355.531030,10434.275600,0.000000,0.000000
355.531336,10042.009600,0.000000,0.000000
355.531641,9885.103200,-156.906400,0.000000
355.531947,9806.650000,313.812800,78.453200
355.532253,10591.182000,-313.812800,549.172400
355.532558,9885.103200,78.453200,470.719200
355.532864,10042.009600,156.906400,313.812800
355.533169,10042.009600,470.719200,0.000000
355.533475,9963.556400,392.266000,0.000000
355.533781,9571.290400,706.078800,0.000000
355.534086,9885.103200,862.985200,-235.359600
355.534392,9335.930800,235.359600,0.000000
355.534697,10042.009600,-392.266000,0.000000
355.535003,10512.728800,1725.970400,-706.078800
355.535309,9728.196800,-1490.610800,392.266000
355.535614,10042.009600,-627.625600,627.625600
355.535920,9649.743600,78.453200,0.000000
355.536225,10355.822400,78.453200,-156.906400
355.536531,9963.556400,78.453200,-235.359600
355.536837,9728.196800,549.172400,-549.172400
355.537142,9806.650000,156.906400,156.906400
355.537448,9728.196800,-78.453200,0.000000
355.537753,10198.916000,-627.625600,470.719200
355.538059,9806.650000,0.000000,470.719200
355.538365,10355.822400,78.453200,392.266000
355.538670,10120.462800,-156.906400,0.000000
355.538976,10355.822400,-156.906400,0.000000
355.539282,9806.650000,235.359600,0.000000
355.539587,9885.103200,-235.359600,0.000000
355.539893,9414.384000,549.172400,-78.453200
355.540198,9963.556400,-627.625600,0.000000
355.540504,9963.556400,-862.985200,-1098.344800
355.540810,9728.196800,-78.453200,0.000000
355.541115,10591.182000,-627.625600,-78.453200
355.541421,10042.009600,-78.453200,-392.266000
355.541726,10042.009600,0.000000,156.906400
355.542032,10198.916000,-470.719200,-78.453200
355.542338,10042.009600,-706.078800,-235.359600
355.542643,9963.556400,-392.266000,0.000000
355.542949,10120.462800,235.359600,-156.906400
355.543254,10277.369200,235.359600,0.000000
355.543560,10512.728800,78.453200,-313.812800
355.543866,9963.556400,0.000000,-313.812800
355.544171,10042.009600,-235.359600,0.000000
355.544477,9492.837200,0.000000,0.000000
355.544782,10277.369200,-470.719200,-78.453200
355.545088,9885.103200,-313.812800,78.453200
355.545394,10120.462800,862.985200,-392.266000
355.545699,10591.182000,-706.078800,-627.625600
355.546005,9963.556400,156.906400,235.359600
355.546311,10591.182000,392.266000,156.906400
355.546616,9963.556400,313.812800,-156.906400
355.546922,9806.650000,470.719200,0.000000
355.547227,10669.635200,0.000000,0.000000
355.547533,9492.837200,0.000000,-235.359600
355.547839,10042.009600,470.719200,0.000000
355.548144,10355.822400,156.906400,-392.266000
355.548450,9492.837200,156.906400,0.000000
355.548755,10434.275600,0.000000,0.000000
355.549061,9571.290400,0.000000,-549.172400
355.549367,10198.916000,0.000000,-78.453200
355.549672,9806.650000,862.985200,-784.532000
355.549978,10042.009600,78.453200,78.453200
355.550283,10120.462800,-78.453200,156.906400
355.550589,9885.103200,235.359600,0.000000
355.550895,10748.088400,-706.078800,0.000000
355.551200,10826.541600,0.000000,392.266000
355.551506,10042.009600,235.359600,235.359600
355.551812,9728.196800,313.812800,0.000000
355.552117,10434.275600,235.359600,78.453200
355.552423,10355.822400,-313.812800,0.000000
355.552728,10042.009600,-156.906400,470.719200
355.553034,9806.650000,0.000000,78.453200
355.553340,10042.009600,-78.453200,0.000000
355.553645,10042.009600,-392.266000,-313.812800
355.553951,9806.650000,-549.172400,156.906400
355.554256,9885.103200,-862.985200,-235.359600
355.554562,9728.196800,-313.812800,-627.625600
355.554868,9963.556400,-470.719200,-549.172400
355.555173,9728.196800,0.000000,-235.359600
355.555479,9963.556400,-235.359600,0.000000
355.555784,9885.103200,-392.266000,78.453200
355.556090,9806.650000,392.266000,235.359600
355.556396,10355.822400,0.000000,392.266000
355.556701,9963.556400,78.453200,0.000000
355.557007,10277.369200,0.000000,78.453200
355.557312,9571.290400,-156.906400,0.000000
355.557618,10120.462800,-313.812800,-156.906400
355.557924,10669.635200,-549.172400,235.359600
355.558229,10042.009600,-627.625600,-78.453200
355.558535,9963.556400,-235.359600,0.000000
355.558841,10042.009600,235.359600,0.000000
355.559146,10042.009600,0.000000,1098.344800
355.559452,9885.103200,706.078800,0.000000
355.559757,9728.196800,313.812800,549.172400
355.560063,9963.556400,627.625600,-78.453200
355.560369,9571.290400,313.812800,313.812800
355.560674,9649.743600,78.453200,-313.812800
355.560980,9728.196800,313.812800,0.000000
355.561285,10042.009600,0.000000,156.906400
355.561591,9963.556400,313.812800,0.000000
355.561897,9414.384000,156.906400,78.453200
355.562202,9728.196800,549.172400,156.906400
355.562508,10198.916000,0.000000,1176.798000
355.562813,10277.369200,235.359600,549.172400
355.563119,9806.650000,549.172400,313.812800
355.563425,10198.916000,313.812800,627.625600
355.563730,10277.369200,549.172400,470.719200
355.564036,9728.196800,392.266000,0.000000
355.564341,10120.462800,0.000000,549.172400
355.564647,10042.009600,156.906400,470.719200
355.564953,9885.103200,78.453200,156.906400
355.565258,9728.196800,0.000000,0.000000
355.565564,10434.275600,0.000000,78.453200
355.565870,9414.384000,235.359600,78.453200
355.566175,10512.728800,0.000000,470.719200
355.566481,9885.103200,156.906400,156.906400
355.566786,9806.650000,470.719200,0.000000
355.567092,10042.009600,0.000000,156.906400
355.567398,9728.196800,392.266000,0.000000
355.567703,9649.743600,156.906400,78.453200
355.568009,9963.556400,0.000000,235.359600
355.568314,10198.916000,235.359600,156.906400
355.568620,10042.009600,0.000000,0.000000
355.568926,10904.994800,392.266000,78.453200
355.569231,9963.556400,78.453200,0.000000
355.569537,10042.009600,549.172400,392.266000
355.569842,10591.182000,392.266000,0.000000
355.570148,10042.009600,313.812800,-78.453200
355.570454,9963.556400,0.000000,78.453200
355.570759,10591.182000,313.812800,78.453200
355.571065,9885.103200,0.000000,0.000000
355.571371,10042.009600,470.719200,-235.359600
355.571676,9649.743600,235.359600,-470.719200
355.571982,9022.118000,549.172400,-1098.344800
355.572287,10042.009600,0.000000,-392.266000
355.572593,9806.650000,156.906400,-549.172400
355.572899,10277.369200,0.000000,-78.453200
355.573204,10042.009600,313.812800,78.453200
355.573510,10355.822400,235.359600,235.359600
355.573815,9885.103200,78.453200,-313.812800
355.574121,10355.822400,156.906400,0.000000
355.574427,9571.290400,0.000000,0.000000
355.574732,10198.916000,-313.812800,0.000000
355.575038,9806.650000,-235.359600,-235.359600
355.575343,10512.728800,-313.812800,-470.719200
355.575649,10042.009600,-470.719200,549.172400
355.575955,10277.369200,-1098.344800,-235.359600
355.576260,10042.009600,-235.359600,0.000000
355.576566,9885.103200,156.906400,1019.891600
355.576871,11218.807600,235.359600,235.359600
355.577177,10277.369200,1019.891600,156.906400
355.577483,10198.916000,0.000000,0.000000
355.577788,10042.009600,392.266000,313.812800
355.578094,9806.650000,235.359600,-313.812800
355.578400,9414.384000,235.359600,156.906400
355.578705,10277.369200,235.359600,-627.625600
355.579011,10198.916000,2510.502400,-784.532000
355.579316,10983.448000,313.812800,-392.266000
355.579622,9335.930800,78.453200,78.453200
355.579928,10591.182000,0.000000,0.000000
355.580233,10826.541600,0.000000,-156.906400
355.580539,9492.837200,235.359600,-627.625600
355.580844,9728.196800,549.172400,-627.625600
355.581150,9806.650000,-313.812800,-470.719200
355.581456,9492.837200,-156.906400,235.359600
355.581761,9335.930800,0.000000,-862.985200
355.582067,9100.571200,-392.266000,470.719200
355.582372,9257.477600,-235.359600,-313.812800
355.582678,10669.635200,-156.906400,313.812800
355.582984,9649.743600,313.812800,-392.266000
355.583289,10355.822400,1019.891600,0.000000
355.583595,9649.743600,78.453200,-470.719200
355.583900,9885.103200,0.000000,-392.266000
355.584206,10355.822400,-627.625600,0.000000
355.584512,10042.009600,0.000000,392.266000
355.584817,9885.103200,156.906400,0.000000
355.585123,9885.103200,-549.172400,156.906400
355.585429,10198.916000,-392.266000,0.000000
355.585734,9649.743600,-470.719200,-549.172400
355.586040,9806.650000,-470.719200,-392.266000
355.586345,9414.384000,-78.453200,0.000000
355.586651,9649.743600,-549.172400,-313.812800
355.586957,9100.571200,-627.625600,0.000000
355.587262,9885.103200,-392.266000,0.000000
355.587568,9492.837200,-470.719200,0.000000
355.587873,9571.290400,-549.172400,1176.798000
355.588179,9492.837200,-156.906400,470.719200
355.588485,9963.556400,-706.078800,549.172400
355.588790,10277.369200,0.000000,706.078800
355.589096,10512.728800,-156.906400,941.438400
355.589401,10120.462800,-156.906400,313.812800
355.589707,10748.088400,549.172400,-235.359600
355.590013,9649.743600,235.359600,78.453200
355.590318,9885.103200,-235.359600,-156.906400
355.590624,10042.009600,0.000000,156.906400
355.590930,10198.916000,-549.172400,235.359600
355.591235,10434.275600,-706.078800,313.812800
355.591541,10355.822400,0.000000,392.266000
355.591846,10042.009600,78.453200,235.359600
355.592152,10198.916000,470.719200,235.359600
355.592458,10277.369200,627.625600,0.000000
355.592763,9885.103200,862.985200,313.812800
355.593069,9963.556400,156.906400,392.266000
355.593374,10277.369200,-392.266000,78.453200
355.593680,9414.384000,-392.266000,-78.453200
355.593986,9571.290400,0.000000,470.719200
355.594291,10277.369200,-706.078800,0.000000
355.594597,8786.758400,-706.078800,78.453200
355.594902,9335.930800,0.000000,235.359600
355.595208,9571.290400,78.453200,0.000000
355.595514,10042.009600,156.906400,1176.798000
355.595819,11218.807600,-313.812800,156.906400
355.596125,10591.182000,549.172400,549.172400
355.596430,9885.103200,0.000000,392.266000
355.596736,10277.369200,313.812800,0.000000
355.597042,9649.743600,313.812800,235.359600
355.597347,9885.103200,862.985200,156.906400
355.597653,9728.196800,0.000000,-392.266000
355.597959,10591.182000,0.000000,-78.453200
355.598264,9649.743600,-313.812800,0.000000
355.598570,10120.462800,0.000000,0.000000
355.598875,9492.837200,-235.359600,470.719200
355.599181,10434.275600,0.000000,78.453200
355.599487,10669.635200,627.625600,0.000000
355.599792,9806.650000,235.359600,0.000000
355.600098,10983.448000,-78.453200,156.906400
355.600403,9414.384000,0.000000,156.906400
355.600709,9649.743600,156.906400,392.266000
355.601015,9414.384000,235.359600,-470.719200
355.601320,9806.650000,235.359600,-549.172400
355.601626,9649.743600,-313.812800,-470.719200
355.601931,10120.462800,0.000000,-156.906400
355.602237,9492.837200,0.000000,0.000000
355.602543,10042.009600,-470.719200,0.000000
355.602848,9885.103200,235.359600,78.453200
355.603154,10434.275600,156.906400,-706.078800
355.603459,10042.009600,470.719200,0.000000
355.603765,10512.728800,549.172400,-156.906400
355.604071,10512.728800,156.906400,78.453200
355.604376,9963.556400,549.172400,-313.812800
355.604682,9963.556400,313.812800,-313.812800
355.604988,10042.009600,0.000000,-392.266000
355.605293,9963.556400,78.453200,0.000000
355.605599,9885.103200,0.000000,-627.625600
355.605904,9806.650000,0.000000,-392.266000
355.606210,10042.009600,549.172400,78.453200
355.606516,9414.384000,941.438400,-706.078800
355.606821,11140.354400,156.906400,392.266000
355.607127,10355.822400,549.172400,78.453200
355.607432,10277.369200,862.985200,-313.812800
355.607738,10355.822400,706.078800,-549.172400
355.608044,9963.556400,549.172400,-470.719200
355.608349,9649.743600,0.000000,-627.625600
355.608655,9492.837200,235.359600,-1098.344800
355.608960,9806.650000,0.000000,0.000000
355.609266,10277.369200,-706.078800,156.906400
355.609572,9414.384000,-627.625600,78.453200
355.609877,10355.822400,78.453200,862.985200
355.610183,9728.196800,313.812800,0.000000
355.610488,9885.103200,784.532000,-235.359600
355.610794,10277.369200,392.266000,156.906400
355.611100,10042.009600,313.812800,0.000000
355.611405,10434.275600,0.000000,0.000000
355.611711,9963.556400,0.000000,235.359600
355.612017,10120.462800,-78.453200,-549.172400
355.612322,9414.384000,0.000000,78.453200
355.612628,10669.635200,-78.453200,156.906400
355.612933,9571.290400,0.000000,-392.266000
355.613239,10355.822400,156.906400,-1255.251200
355.613545,9885.103200,0.000000,-313.812800
355.613850,10042.009600,0.000000,-313.812800
355.614156,10277.369200,78.453200,-156.906400
355.614461,10198.916000,313.812800,156.906400
355.614767,10120.462800,156.906400,0.000000
355.615073,10512.728800,156.906400,0.000000
355.615378,9963.556400,78.453200,-235.359600
355.615684,10042.009600,0.000000,0.000000
355.615989,9963.556400,78.453200,0.000000
355.616295,9100.571200,0.000000,-156.906400
355.616601,10591.182000,-235.359600,0.000000
355.616906,9728.196800,-313.812800,156.906400
355.617212,9649.743600,0.000000,0.000000
355.617518,9885.103200,313.812800,0.000000
355.617823,9963.556400,235.359600,862.985200
355.618129,9885.103200,313.812800,156.906400
355.618434,10042.009600,470.719200,627.625600
355.618740,9963.556400,313.812800,470.719200
355.619046,10277.369200,78.453200,235.359600
355.619351,10042.009600,0.000000,0.000000
355.619657,10277.369200,313.812800,235.359600
355.619962,9728.196800,235.359600,-156.906400
355.620268,9806.650000,0.000000,0.000000
355.620574,9963.556400,0.000000,0.000000
355.620879,9963.556400,78.453200,0.000000
355.621185,10591.182000,-392.266000,313.812800
355.621490,9571.290400,0.000000,235.359600
355.621796,10042.009600,0.000000,313.812800
355.622102,10434.275600,0.000000,313.812800
355.622407,10120.462800,0.000000,156.906400
355.622713,9963.556400,313.812800,156.906400
355.623018,10120.462800,0.000000,392.266000
355.623324,10042.009600,0.000000,0.000000
355.623630,9963.556400,-470.719200,0.000000
355.623935,10042.009600,-156.906400,0.000000
355.624241,9492.837200,-549.172400,-627.625600
355.624547,10434.275600,-392.266000,0.000000
355.624852,9885.103200,-784.532000,313.812800
355.625158,9885.103200,-784.532000,235.359600
355.625463,10042.009600,-392.266000,313.812800
355.625769,9963.556400,0.000000,235.359600
355.626075,9649.743600,0.000000,235.359600
355.626380,9963.556400,235.359600,-470.719200
355.626686,10042.009600,0.000000,-549.172400
355.626991,9728.196800,-156.906400,-470.719200
355.627297,9963.556400,-313.812800,-784.532000
355.627603,10277.369200,-627.625600,-549.172400
355.627908,10042.009600,-1176.798000,313.812800
355.628214,9885.103200,-941.438400,0.000000
355.628519,10198.916000,0.000000,78.453200
355.628825,10120.462800,156.906400,0.000000
355.629131,10512.728800,78.453200,627.625600
355.629436,10120.462800,313.812800,470.719200
355.629742,10669.635200,156.906400,313.812800
355.630047,10120.462800,235.359600,-549.172400
355.630353,9492.837200,-156.906400,78.453200
355.630659,10591.182000,0.000000,78.453200
355.630964,9806.650000,706.078800,-549.172400
355.631270,9492.837200,-235.359600,235.359600
355.631576,9728.196800,0.000000,-392.266000
355.631881,9806.650000,-313.812800,78.453200
355.632187,10120.462800,-313.812800,-470.719200
355.632492,9806.650000,549.172400,-156.906400
355.632798,9806.650000,313.812800,-313.812800
355.633104,9728.196800,706.078800,-549.172400
355.633409,9571.290400,627.625600,-470.719200
355.633715,9806.650000,706.078800,-313.812800
355.634020,9963.556400,392.266000,156.906400
355.634326,9649.743600,-235.359600,-313.812800
355.634632,10042.009600,0.000000,0.000000
355.634937,9492.837200,-313.812800,0.000000
355.635243,9649.743600,0.000000,0.000000
355.635548,10042.009600,0.000000,156.906400
355.635854,9806.650000,156.906400,0.000000
355.636160,10042.009600,392.266000,470.719200
355.636465,10434.275600,392.266000,706.078800
355.636771,10042.009600,549.172400,627.625600
355.637077,10198.916000,235.359600,1019.891600
355.637382,9885.103200,78.453200,549.172400
355.637688,10355.822400,470.719200,156.906400
355.637993,9885.103200,78.453200,0.000000
355.638299,9492.837200,0.000000,-313.812800
355.638605,9963.556400,0.000000,0.000000
355.638910,9571.290400,0.000000,-235.359600
355.639216,9728.196800,0.000000,-549.172400
355.639521,10277.369200,-313.812800,-313.812800
355.639827,9963.556400,-313.812800,-313.812800
355.640133,9414.384000,156.906400,-235.359600
355.640438,10042.009600,78.453200,-156.906400
355.640744,10355.822400,0.000000,0.000000
355.641049,9963.556400,-627.625600,0.000000
355.641355,10042.009600,-313.812800,235.359600
355.641661,10042.009600,-156.906400,78.453200
355.641966,10042.009600,-313.812800,0.000000
355.642272,9963.556400,-1019.891600,156.906400
355.642577,9571.290400,-313.812800,0.000000
355.642883,10042.009600,-549.172400,-235.359600
355.643189,9963.556400,-627.625600,78.453200
355.643494,9963.556400,-235.359600,627.625600
355.643800,10355.822400,-235.359600,235.359600
355.644106,10042.009600,-156.906400,0.000000
355.644411,10042.009600,-313.812800,0.000000
355.644717,9728.196800,313.812800,-313.812800
355.645022,10277.369200,470.719200,-235.359600
355.645328,10355.822400,470.719200,-313.812800
355.645634,9963.556400,235.359600,0.000000
355.645939,10042.009600,0.000000,-235.359600
355.646245,10198.916000,0.000000,0.000000
355.646550,10042.009600,0.000000,-313.812800
355.646856,10120.462800,941.438400,-235.359600
355.647162,10198.916000,549.172400,-235.359600
355.647467,10042.009600,706.078800,0.000000
355.647773,10120.462800,470.719200,78.453200
355.648078,10042.009600,549.172400,0.000000
355.648384,10042.009600,1412.157600,392.266000
355.648690,9649.743600,0.000000,-78.453200
355.648995,9806.650000,313.812800,0.000000
355.649301,10042.009600,549.172400,78.453200
355.649606,9728.196800,627.625600,0.000000
355.649912,9963.556400,1804.423600,-1255.251200
355.650218,10042.009600,0.000000,0.000000
355.650523,8943.664800,-1019.891600,-627.625600
355.650829,9885.103200,-470.719200,313.812800
355.651135,9571.290400,392.266000,235.359600
355.651440,9492.837200,784.532000,-470.719200
355.651746,9414.384000,862.985200,0.000000
355.652051,10042.009600,235.359600,235.359600
355.652357,9885.103200,392.266000,392.266000
355.652663,10042.009600,156.906400,627.625600
355.652968,10042.009600,0.000000,1098.344800
355.653274,9885.103200,-313.812800,392.266000
355.653579,9414.384000,0.000000,0.000000
355.653885,9728.196800,78.453200,0.000000
355.654191,10591.182000,627.625600,235.359600
355.654496,10042.009600,78.453200,0.000000
355.654802,9963.556400,235.359600,549.172400
355.655107,10434.275600,-235.359600,78.453200
355.655413,9728.196800,-706.078800,78.453200
355.655719,10120.462800,-313.812800,0.000000
355.656024,9728.196800,0.000000,-313.812800
355.656330,10198.916000,0.000000,0.000000
355.656636,9885.103200,-156.906400,-392.266000
355.656941,9806.650000,-313.812800,-235.359600
355.657247,9963.556400,-156.906400,0.000000
355.657552,10120.462800,-549.172400,-627.625600
355.657858,9728.196800,-706.078800,78.453200
355.658164,10042.009600,-392.266000,0.000000
355.658469,9571.290400,235.359600,-470.719200
355.658775,9649.743600,-156.906400,0.000000
355.659080,10434.275600,-392.266000,156.906400
355.659386,10198.916000,-470.719200,784.532000
355.659692,10669.635200,0.000000,470.719200
355.659997,9649.743600,0.000000,235.359600
355.660303,9963.556400,78.453200,156.906400
355.660608,9963.556400,470.719200,313.812800
355.660914,10434.275600,235.359600,-392.266000
355.661220,9571.290400,0.000000,0.000000
355.661525,9728.196800,235.359600,-156.906400
355.661831,10198.916000,-156.906400,-313.812800
355.662136,10042.009600,-549.172400,0.000000
355.662442,9963.556400,0.000000,-156.906400
355.662748,9885.103200,0.000000,-627.625600
355.663053,9963.556400,0.000000,0.000000
355.663359,10042.009600,549.172400,-549.172400
355.663665,9963.556400,549.172400,-706.078800
355.663970,10120.462800,0.000000,0.000000
355.664276,10669.635200,0.000000,627.625600
355.664581,10277.369200,156.906400,-313.812800
355.664887,9963.556400,235.359600,706.078800
355.665193,10042.009600,0.000000,313.812800
355.665498,10120.462800,313.812800,235.359600
355.665804,9728.196800,78.453200,78.453200
355.666109,10355.822400,0.000000,627.625600
355.666415,10198.916000,0.000000,470.719200
355.666721,9963.556400,156.906400,78.453200
355.667026,9963.556400,-235.359600,0.000000
355.667332,10042.009600,235.359600,549.172400
355.667637,9885.103200,-627.625600,0.000000
355.667943,9414.384000,0.000000,0.000000
355.668249,10042.009600,549.172400,0.000000
355.668554,10042.009600,78.453200,-470.719200
355.668860,9649.743600,392.266000,0.000000
355.669165,10042.009600,156.906400,-156.906400
355.669471,9806.650000,235.359600,-627.625600
355.669777,9414.384000,235.359600,-235.359600
355.670082,10277.369200,-235.359600,-235.359600
355.670388,10198.916000,-313.812800,-392.266000
355.670694,10512.728800,-862.985200,0.000000
355.670999,10512.728800,-156.906400,0.000000
355.671305,9963.556400,-313.812800,0.000000
355.671610,10042.009600,-392.266000,0.000000
355.671916,10120.462800,-313.812800,-235.359600
355.672222,9885.103200,-706.078800,-313.812800
355.672527,9649.743600,-235.359600,-706.078800
355.672833,9806.650000,-392.266000,-470.719200
355.673138,9806.650000,-313.812800,-156.906400
355.673444,9963.556400,-627.625600,0.000000
355.673750,9885.103200,-392.266000,470.719200
355.674055,9649.743600,-313.812800,0.000000
355.674361,10355.822400,0.000000,78.453200
355.674666,9963.556400,156.906400,0.000000
355.674972,9885.103200,235.359600,-313.812800
355.675278,10669.635200,784.532000,156.906400
355.675583,10198.916000,392.266000,0.000000
355.675889,9963.556400,78.453200,0.000000
355.676195,10042.009600,0.000000,0.000000
355.676500,10277.369200,156.906400,392.266000
355.676806,10434.275600,0.000000,392.266000
355.677111,10042.009600,0.000000,235.359600
355.677417,10198.916000,313.812800,313.812800
355.677723,10120.462800,0.000000,392.266000
355.678028,9806.650000,0.000000,0.000000
355.678334,10277.369200,0.000000,156.906400
355.678639,9885.103200,0.000000,0.000000
355.678945,10355.822400,0.000000,235.359600
355.679251,9885.103200,-156.906400,-235.359600
355.679556,9571.290400,0.000000,-156.906400
355.679862,9492.837200,392.266000,-627.625600
355.680167,9414.384000,235.359600,0.000000
355.680473,9649.743600,549.172400,-627.625600
355.680779,10042.009600,470.719200,-470.719200
355.681084,9728.196800,0.000000,0.000000
355.681390,10042.009600,0.000000,706.078800
355.681695,10042.009600,0.000000,78.453200
355.682001,9885.103200,0.000000,235.359600
355.682307,10355.822400,-235.359600,156.906400
355.682612,9571.290400,-235.359600,0.000000
355.682918,10042.009600,0.000000,0.000000
355.683224,10198.916000,-549.172400,78.453200
355.683529,10042.009600,-392.266000,78.453200
355.683835,9963.556400,0.000000,313.812800
355.684140,10042.009600,0.000000,549.172400
355.684446,10277.369200,-627.625600,0.000000
355.684752,10042.009600,1019.891600,78.453200
355.685057,9649.743600,156.906400,1176.798000
355.685363,11218.807600,-392.266000,156.906400
355.685668,10434.275600,235.359600,156.906400
355.685974,10355.822400,0.000000,0.000000
355.686280,9728.196800,0.000000,784.532000
355.686585,10277.369200,235.359600,78.453200
355.686891,10198.916000,392.266000,0.000000
355.687196,9885.103200,313.812800,-313.812800
355.687502,9885.103200,549.172400,-549.172400
355.687808,9885.103200,392.266000,-392.266000
355.688113,10120.462800,313.812800,0.000000
355.688419,10042.009600,235.359600,0.000000
355.688724,9885.103200,235.359600,78.453200
355.689030,9963.556400,706.078800,0.000000
355.689336,9806.650000,470.719200,-156.906400
355.689641,9649.743600,235.359600,-235.359600
355.689947,8551.398800,1019.891600,-549.172400
355.690253,10198.916000,-392.266000,0.000000
355.690558,10120.462800,156.906400,313.812800
355.690864,9728.196800,0.000000,313.812800
355.691169,10277.369200,0.000000,313.812800
355.691475,9492.837200,0.000000,156.906400
355.691781,9806.650000,392.266000,0.000000
355.692086,9728.196800,470.719200,-392.266000
355.692392,10669.635200,235.359600,0.000000
355.692697,9728.196800,78.453200,392.266000
355.693003,10120.462800,941.438400,0.000000
355.693309,9335.930800,-1019.891600,156.906400
355.693614,9963.556400,-235.359600,313.812800
355.693920,9963.556400,-627.625600,235.359600
355.694225,9571.290400,0.000000,0.000000
355.694531,9649.743600,627.625600,-392.266000
355.694837,10120.462800,0.000000,0.000000
355.695142,9963.556400,0.000000,0.000000
355.695448,10120.462800,-313.812800,0.000000
355.695753,10198.916000,0.000000,235.359600
355.696059,9806.650000,0.000000,0.000000
355.696365,10277.369200,0.000000,-235.359600
355.696670,9885.103200,0.000000,-313.812800
355.696976,10277.369200,-313.812800,0.000000
355.697282,10042.009600,0.000000,78.453200
355.697587,10904.994800,156.906400,0.000000
355.697893,10198.916000,0.000000,0.000000
355.698198,10669.635200,-313.812800,470.719200
355.698504,9649.743600,-235.359600,0.000000
355.698810,10355.822400,0.000000,0.000000
355.699115,9963.556400,-235.359600,-470.719200
355.699421,9728.196800,-549.172400,0.000000
355.699726,10198.916000,0.000000,-156.906400
355.700032,9649.743600,0.000000,0.000000
355.700338,9963.556400,0.000000,0.000000
355.700643,9649.743600,313.812800,-313.812800
355.700949,10042.009600,470.719200,-392.266000
355.701254,10042.009600,0.000000,-313.812800
355.701560,9885.103200,392.266000,-313.812800
355.701866,9885.103200,0.000000,0.000000
355.702171,9414.384000,-235.359600,156.906400
355.702477,10042.009600,0.000000,235.359600
355.702783,10355.822400,-313.812800,0.000000
355.703088,8786.758400,78.453200,392.266000
355.703394,10042.009600,0.000000,78.453200
355.703699,9963.556400,0.000000,313.812800
355.704005,10042.009600,706.078800,862.985200
355.704311,10198.916000,470.719200,313.812800
355.704616,10277.369200,156.906400,392.266000
355.704922,10042.009600,392.266000,0.000000
355.705227,10042.009600,0.000000,156.906400
355.705533,10198.916000,78.453200,1176.798000
355.705839,9492.837200,0.000000,0.000000
355.706144,10120.462800,-470.719200,0.000000
355.706450,10042.009600,0.000000,313.812800
355.706755,10042.009600,0.000000,78.453200
355.707061,9963.556400,0.000000,235.359600
355.707367,9963.556400,156.906400,0.000000
355.707672,10355.822400,0.000000,-156.906400
355.707978,9963.556400,392.266000,-156.906400
355.708283,10120.462800,313.812800,156.906400
355.708589,10120.462800,0.000000,0.000000
355.708895,10512.728800,0.000000,156.906400
355.709200,9885.103200,-470.719200,549.172400
355.709506,10042.009600,0.000000,78.453200
355.709812,9728.196800,156.906400,0.000000
355.710117,10591.182000,235.359600,0.000000
355.710423,10355.822400,78.453200,-313.812800
355.710728,10198.916000,-392.266000,313.812800
355.711034,10198.916000,78.453200,156.906400
355.711340,9649.743600,-470.719200,0.000000
355.711645,9649.743600,-156.906400,-156.906400
355.711951,9649.743600,0.000000,-156.906400
355.712256,9492.837200,0.000000,-706.078800
355.712562,10277.369200,784.532000,-392.266000
355.712868,9963.556400,156.906400,0.000000
355.713173,10042.009600,-470.719200,0.000000
355.713479,10042.009600,0.000000,78.453200
355.713784,9885.103200,-156.906400,156.906400
355.714090,9806.650000,0.000000,78.453200
355.714396,9806.650000,0.000000,0.000000
355.714701,9806.650000,-156.906400,-313.812800
355.715007,10042.009600,0.000000,0.000000
355.715312,9728.196800,392.266000,0.000000
355.715618,9885.103200,78.453200,-313.812800
355.715924,9885.103200,0.000000,-156.906400
355.716229,10042.009600,-313.812800,-235.359600
355.716535,9649.743600,0.000000,-235.359600
355.716841,10042.009600,0.000000,-549.172400
355.717146,9885.103200,-1176.798000,-627.625600
355.717452,9649.743600,0.000000,-470.719200
355.717757,9649.743600,0.000000,-1255.251200
355.718063,9806.650000,-1019.891600,627.625600
355.718369,8865.211600,78.453200,0.000000
355.718674,10042.009600,0.000000,-392.266000
355.718980,9022.118000,235.359600,-392.266000
355.719285,9571.290400,392.266000,0.000000
355.719591,8002.226400,-1804.423600,-1019.891600
355.719897,11297.260800,-784.532000,0.000000
355.720202,10748.088400,-235.359600,-784.532000
355.720508,9492.837200,-78.453200,-392.266000
355.720813,10591.182000,0.000000,0.000000
355.721119,10355.822400,-706.078800,0.000000
355.721425,10042.009600,0.000000,-392.266000
355.721730,10434.275600,549.172400,-235.359600
355.722036,10748.088400,-235.359600,313.812800
355.722342,10277.369200,-862.985200,470.719200
355.722647,10434.275600,313.812800,392.266000
355.722953,9806.650000,313.812800,-235.359600
355.723258,10198.916000,156.906400,-235.359600
355.723564,10434.275600,-235.359600,-235.359600
355.723870,9022.118000,313.812800,-1019.891600
355.724175,10355.822400,-1019.891600,0.000000
355.724481,10277.369200,-862.985200,235.359600
355.724786,9100.571200,-941.438400,156.906400
355.725092,9571.290400,-549.172400,313.812800
355.725398,9649.743600,0.000000,0.000000
355.725703,10042.009600,627.625600,0.000000
355.726009,9728.196800,784.532000,-392.266000
355.726314,9728.196800,156.906400,-313.812800
355.726620,10434.275600,0.000000,627.625600
355.726926,10277.369200,-470.719200,470.719200
355.727231,9414.384000,-1019.891600,1333.704400
355.727537,9885.103200,1804.423600,156.906400
355.727842,10277.369200,-313.812800,706.078800
355.728148,10198.916000,0.000000,470.719200
355.728454,10042.009600,470.719200,235.359600
355.728759,9885.103200,549.172400,392.266000
355.729065,10512.728800,235.359600,627.625600
355.729371,10042.009600,0.000000,784.532000
355.729676,10042.009600,0.000000,627.625600
355.729982,10355.822400,0.000000,549.172400
355.730287,10042.009600,78.453200,1255.251200
355.730593,10120.462800,156.906400,627.625600
355.730899,10042.009600,235.359600,156.906400
355.731204,10042.009600,156.906400,235.359600
355.731510,9728.196800,313.812800,549.172400
355.731815,9649.743600,156.906400,784.532000
355.732121,10120.462800,0.000000,470.719200
355.732427,9728.196800,313.812800,0.000000
355.732732,9806.650000,156.906400,0.000000
355.733038,9963.556400,0.000000,392.266000
355.733343,9963.556400,0.000000,313.812800
355.733649,10591.182000,78.453200,627.625600
355.733955,10120.462800,78.453200,549.172400
355.734260,10120.462800,549.172400,470.719200
355.734566,10120.462800,235.359600,78.453200
355.734871,10042.009600,470.719200,156.906400
355.735177,9649.743600,156.906400,-549.172400
355.735483,10042.009600,78.453200,156.906400
355.735788,9806.650000,0.000000,235.359600
355.736094,9649.743600,0.000000,235.359600
355.736400,10042.009600,0.000000,470.719200
355.736705,10198.916000,-470.719200,470.719200
355.737011,9414.384000,470.719200,78.453200
355.737316,10198.916000,392.266000,-235.359600
355.737622,9571.290400,627.625600,-470.719200
355.737928,9963.556400,627.625600,-156.906400
355.738233,10120.462800,549.172400,78.453200
355.738539,9885.103200,235.359600,0.000000
355.738844,9414.384000,235.359600,549.172400
355.739150,10591.182000,0.000000,-313.812800
355.739456,10277.369200,1176.798000,-235.359600
355.739761,9022.118000,0.000000,-235.359600
355.740067,10277.369200,-313.812800,156.906400
355.740372,10042.009600,-470.719200,-392.266000
355.740678,10042.009600,0.000000,0.000000
355.740984,9963.556400,78.453200,0.000000
355.741289,10434.275600,235.359600,0.000000
355.741595,9885.103200,313.812800,-1490.610800
355.741901,9963.556400,706.078800,-627.625600
355.742206,10042.009600,0.000000,-470.719200
355.742512,9885.103200,0.000000,-627.625600
355.742817,10120.462800,0.000000,-627.625600
355.743123,9885.103200,0.000000,-313.812800
355.743429,9885.103200,0.000000,-313.812800
355.743734,10042.009600,0.000000,-784.532000
355.744040,10042.009600,549.172400,-706.078800
355.744345,9571.290400,156.906400,-784.532000
355.744651,10512.728800,549.172400,-549.172400
355.744957,10198.916000,627.625600,-235.359600
355.745262,10591.182000,549.172400,0.000000
355.745568,10277.369200,0.000000,-156.906400
355.745873,10042.009600,235.359600,0.000000
355.746179,10042.009600,470.719200,0.000000
355.746485,9414.384000,235.359600,-549.172400
355.746790,10277.369200,470.719200,-235.359600
355.747096,9963.556400,235.359600,0.000000
355.747401,10355.822400,0.000000,78.453200
355.747707,10042.009600,0.000000,156.906400
355.748013,10355.822400,0.000000,-313.812800
355.748318,10355.822400,470.719200,0.000000
355.748624,9963.556400,313.812800,0.000000
355.748930,10277.369200,392.266000,-156.906400
355.749235,9963.556400,0.000000,0.000000
355.749541,10120.462800,-235.359600,78.453200
355.749846,9885.103200,-313.812800,235.359600
355.750152,9963.556400,-392.266000,235.359600
355.750458,9492.837200,-156.906400,0.000000
355.750763,10042.009600,-156.906400,78.453200
355.751069,9649.743600,156.906400,0.000000
355.751374,10198.916000,0.000000,0.000000
355.751680,10042.009600,313.812800,156.906400
355.751986,10198.916000,0.000000,78.453200
355.752291,9885.103200,0.000000,0.000000
355.752597,10434.275600,-235.359600,0.000000
355.752902,10277.369200,78.453200,0.000000
355.753208,9806.650000,0.000000,0.000000
355.753514,10120.462800,-549.172400,-235.359600
355.753819,9885.103200,-549.172400,-235.359600
355.754125,10198.916000,0.000000,78.453200
355.754430,9885.103200,-470.719200,156.906400
355.754736,10434.275600,-470.719200,235.359600
355.755042,9885.103200,-313.812800,78.453200
355.755347,9728.196800,0.000000,0.000000
355.755653,10355.822400,3059.674800,-1490.610800
355.755959,10748.088400,-235.359600,784.532000
355.756264,9571.290400,-313.812800,235.359600
355.756570,10591.182000,-313.812800,0.000000
355.756875,10042.009600,-78.453200,392.266000
355.757181,10277.369200,-1255.251200,862.985200
355.757487,9649.743600,-392.266000,0.000000
355.757792,9414.384000,-235.359600,0.000000
355.758098,9414.384000,-156.906400,156.906400
355.758403,9806.650000,-470.719200,235.359600
355.758709,9963.556400,235.359600,392.266000
355.759015,10434.275600,392.266000,235.359600
355.759320,9571.290400,0.000000,156.906400
355.759626,10669.635200,235.359600,235.359600
355.759931,9806.650000,470.719200,0.000000
355.760237,9649.743600,156.906400,-156.906400
355.760543,9728.196800,470.719200,-549.172400
355.760848,10042.009600,78.453200,0.000000
355.761154,10120.462800,0.000000,78.453200
355.761460,10198.916000,78.453200,470.719200
355.761765,10120.462800,78.453200,313.812800
355.762071,10591.182000,706.078800,-627.625600
355.762376,9806.650000,235.359600,-392.266000
355.762682,9571.290400,-313.812800,-313.812800
355.762988,9806.650000,313.812800,0.000000
355.763293,9963.556400,0.000000,78.453200
355.763599,10591.182000,470.719200,235.359600
355.763904,9963.556400,235.359600,156.906400
355.764210,9728.196800,-470.719200,0.000000
355.764516,10042.009600,0.000000,0.000000
355.764821,9335.930800,-156.906400,-470.719200
355.765127,10042.009600,0.000000,-706.078800
355.765432,9806.650000,0.000000,0.000000
355.765738,9649.743600,-784.532000,-235.359600
355.766044,10042.009600,-627.625600,0.000000
355.766349,10042.009600,-784.532000,78.453200
355.766655,10748.088400,-941.438400,156.906400
355.766960,9492.837200,-470.719200,0.000000
355.767266,9414.384000,-862.985200,0.000000
355.767572,9885.103200,0.000000,-313.812800
355.767877,9728.196800,-235.359600,-392.266000
355.768183,10591.182000,-235.359600,313.812800
355.768489,9728.196800,0.000000,0.000000
355.768794,10277.369200,-784.532000,-470.719200
355.769100,10042.009600,-862.985200,0.000000
355.769405,10434.275600,-1333.704400,156.906400
355.769711,9649.743600,-1412.157600,-313.812800
355.770017,11611.073600,-1333.704400,1176.798000
355.770322,9885.103200,-1725.970400,941.438400
355.770628,10198.916000,-784.532000,470.719200
355.770933,9806.650000,-470.719200,0.000000
355.771239,10277.369200,-235.359600,-627.625600
355.771545,9414.384000,0.000000,-941.438400
355.771850,9414.384000,-941.438400,-1176.798000
355.772156,9885.103200,-470.719200,-706.078800
355.772461,10120.462800,-1647.517200,-235.359600
355.772767,9414.384000,-1647.517200,-156.906400
355.773073,9885.103200,-1176.798000,470.719200
355.773378,9963.556400,-1255.251200,-470.719200
355.773684,9728.196800,-862.985200,-706.078800
355.773989,9885.103200,-941.438400,-784.532000
355.774295,9963.556400,-941.438400,-1098.344800
355.774601,10434.275600,-470.719200,-78.453200
355.774906,11218.807600,-1490.610800,-941.438400
355.775212,9963.556400,-235.359600,-1176.798000
355.775518,9963.556400,-1333.704400,-470.719200
355.775823,10512.728800,-1725.970400,-235.359600
355.776129,10355.822400,-1647.517200,-627.625600
355.776434,10042.009600,-1333.704400,-862.985200
355.776740,9728.196800,-1412.157600,-1019.891600
355.777046,10042.009600,-1412.157600,-1176.798000
355.777351,10198.916000,-1569.064000,-1882.876800
355.777657,9963.556400,-862.985200,-1412.157600
355.777962,10355.822400,-1490.610800,-1725.970400
355.778268,10042.009600,-1882.876800,-1961.330000
355.778574,9806.650000,-2432.049200,-2353.596000
355.778879,9649.743600,-1647.517200,-2510.502400
355.779185,9335.930800,-2196.689600,-2432.049200
355.779490,10591.182000,-1647.517200,-2902.768400
355.779796,9649.743600,-2118.236400,-2353.596000
355.780102,9179.024400,-1804.423600,-2432.049200
355.780407,10042.009600,-2118.236400,-2588.955600
355.780713,10120.462800,-2039.783200,-2667.408800
355.781018,10042.009600,-1804.423600,-2902.768400
355.781324,9571.290400,-1961.330000,-2824.315200
355.781630,10120.462800,-2196.689600,-2745.862000
355.781935,10042.009600,-1961.330000,-2745.862000
355.782241,9885.103200,-2196.689600,-2824.315200
355.782547,10042.009600,-2745.862000,-3216.581200
355.782852,9963.556400,-2824.315200,-2667.408800
355.783158,9649.743600,-2353.596000,-2902.768400
355.783463,9728.196800,-2510.502400,-3059.674800
355.783769,9963.556400,-1882.876800,-2824.315200
355.784075,10120.462800,-2039.783200,-2510.502400
355.784380,10120.462800,-2510.502400,-2902.768400
355.784686,10277.369200,-2510.502400,-2745.862000
355.784991,9649.743600,-2432.049200,-3059.674800
355.785297,9963.556400,-2275.142800,-3295.034400
355.785603,9728.196800,-2353.596000,-3608.847200
355.785908,9963.556400,-2275.142800,-4471.832400
355.786214,9022.118000,-2118.236400,-4864.098400
355.786519,9257.477600,-2510.502400,-5021.004800
355.786825,9728.196800,-2510.502400,-4707.192000
355.787131,9571.290400,-2745.862000,-4471.832400
355.787436,9728.196800,-2588.955600,-3373.487600
355.787742,10042.009600,-2588.955600,-3059.674800
355.788048,10042.009600,-2510.502400,-2824.315200
355.788353,10120.462800,-1882.876800,-3059.674800
355.788659,10042.009600,-1882.876800,-3216.581200
355.788964,10512.728800,-1725.970400,-3059.674800
355.789270,9885.103200,-2275.142800,-3687.300400
355.789576,9492.837200,-2510.502400,-3765.753600
355.789881,9728.196800,-2902.768400,-3844.206800
355.790187,9492.837200,-3138.128000,-3844.206800
355.790492,10120.462800,-3059.674800,-3451.940800
355.790798,9806.650000,-2510.502400,-3608.847200
355.791104,9806.650000,-2510.502400,-3216.581200
355.791409,9963.556400,-2275.142800,-3216.581200
355.791715,9963.556400,-1961.330000,-2902.768400
355.792020,9885.103200,-1882.876800,-2667.408800
355.792326,10120.462800,-2353.596000,-2824.315200
355.792632,9571.290400,-2667.408800,-3059.674800
355.792937,9414.384000,-3138.128000,-3608.847200
355.793243,9414.384000,-2902.768400,-3922.660000
355.793548,8472.945600,-2510.502400,-3216.581200
355.793854,9963.556400,-3608.847200,-3138.128000
355.794160,9806.650000,-2902.768400,-2510.502400
355.794465,9728.196800,-2510.502400,-2432.049200
355.794771,10042.009600,-2510.502400,-2196.689600
355.795077,10120.462800,-2275.142800,-2039.783200
355.795382,10198.916000,-1961.330000,-1882.876800
355.795688,10120.462800,-1961.330000,-2353.596000
355.795993,10042.009600,-2196.689600,-2353.596000
355.796299,9885.103200,-2353.596000,-2745.862000
355.796605,9571.290400,-2432.049200,-3295.034400
355.796910,9649.743600,-2510.502400,-3922.660000
355.797216,9414.384000,-2588.955600,-3216.581200
355.797521,9649.743600,-2745.862000,-2981.221600
355.797827,9571.290400,-2667.408800,-2432.049200
355.798133,9806.650000,-2275.142800,-2196.689600
355.798438,10042.009600,-1647.517200,-1255.251200
355.798744,10120.462800,-2039.783200,-941.438400
355.799049,10355.822400,-1412.157600,-862.985200
355.799355,10198.916000,-1333.704400,-1333.704400
355.799661,9963.556400,-1412.157600,-1725.970400
355.799966,9728.196800,-1412.157600,-2118.236400
355.800272,9571.290400,-1961.330000,-2432.049200
355.800577,9492.837200,-2196.689600,-2510.502400
355.800883,9414.384000,-2275.142800,-2510.502400
355.801189,9649.743600,-2039.783200,-1647.517200
355.801494,9806.650000,-1647.517200,-862.985200
355.801800,10042.009600,-1647.517200,-941.438400
355.802106,10042.009600,-1176.798000,-627.625600
355.802411,10042.009600,-1019.891600,-313.812800
355.802717,10120.462800,-784.532000,-470.719200
355.803022,10042.009600,-470.719200,-941.438400
355.803328,9728.196800,-1255.251200,-706.078800
355.803634,9885.103200,-1098.344800,-941.438400
355.803939,9649.743600,-1490.610800,-1176.798000
355.804245,9492.837200,-1412.157600,-941.438400
355.804550,9806.650000,-1569.064000,-1019.891600
355.804856,9649.743600,-1333.704400,-784.532000
355.805162,9963.556400,-1176.798000,-313.812800
355.805467,9963.556400,-941.438400,0.000000
355.805773,10120.462800,-862.985200,78.453200
355.806078,10120.462800,-313.812800,392.266000
355.806384,10120.462800,0.000000,156.906400
355.806690,10120.462800,-392.266000,156.906400
355.806995,9885.103200,-392.266000,-392.266000
355.807301,9885.103200,-706.078800,-549.172400
355.807607,9885.103200,-862.985200,-706.078800
355.807912,10198.916000,-1255.251200,-627.625600
355.808218,9728.196800,-941.438400,-627.625600
355.808523,10042.009600,-862.985200,-470.719200
355.808829,10042.009600,-470.719200,0.000000
355.809135,10042.009600,-235.359600,313.812800
355.809440,10826.541600,0.000000,235.359600
355.809746,10355.822400,-156.906400,549.172400
355.810051,10277.369200,-313.812800,706.078800
355.810357,10277.369200,78.453200,627.625600
355.810663,10120.462800,-156.906400,0.000000
355.810968,10120.462800,-627.625600,-78.453200
355.811274,10277.369200,-156.906400,0.000000
355.811579,9414.384000,-235.359600,-784.532000
355.811885,9885.103200,0.000000,-392.266000
355.812191,9963.556400,-313.812800,-627.625600
355.812496,9649.743600,-392.266000,0.000000
355.812802,10120.462800,-156.906400,392.266000
355.813107,10120.462800,0.000000,235.359600
355.813413,9885.103200,0.000000,156.906400
355.813719,9885.103200,0.000000,78.453200
355.814024,10042.009600,-235.359600,235.359600
355.814330,10042.009600,156.906400,-313.812800
355.814636,9806.650000,78.453200,-313.812800
355.814941,9963.556400,0.000000,0.000000
355.815247,10120.462800,-313.812800,0.000000
355.815552,9963.556400,0.000000,0.000000
355.815858,9963.556400,0.000000,0.000000
355.816164,9806.650000,0.000000,0.000000
355.816469,9885.103200,0.000000,0.000000
355.816775,9963.556400,0.000000,-313.812800
355.817080,10042.009600,0.000000,-235.359600
355.817386,9885.103200,78.453200,-706.078800
355.817692,9728.196800,313.812800,-313.812800
355.817997,10042.009600,78.453200,-313.812800
355.818303,10042.009600,78.453200,-235.359600
355.818608,10042.009600,313.812800,0.000000
355.818914,9963.556400,0.000000,-313.812800
355.819220,10198.916000,0.000000,-156.906400
355.819525,9806.650000,-156.906400,0.000000
355.819831,9728.196800,0.000000,-313.812800
355.820136,9885.103200,-156.906400,0.000000
355.820442,9963.556400,0.000000,-235.359600
355.820748,10120.462800,156.906400,-235.359600
355.821053,10042.009600,156.906400,0.000000
355.821359,10042.009600,313.812800,0.000000
355.821665,10198.916000,313.812800,-156.906400
355.821970,10042.009600,313.812800,0.000000
355.822276,9806.650000,470.719200,-156.906400
355.822581,9963.556400,0.000000,78.453200
355.822887,9885.103200,0.000000,0.000000
355.823193,9728.196800,0.000000,0.000000
355.823498,9806.650000,-156.906400,0.000000
355.823804,10355.822400,78.453200,0.000000
355.824109,9885.103200,156.906400,0.000000
355.824415,10042.009600,78.453200,0.000000
355.824721,10042.009600,156.906400,-156.906400
355.825026,10120.462800,392.266000,-156.906400
355.825332,9806.650000,470.719200,0.000000
355.825637,10042.009600,313.812800,78.453200
355.825943,10042.009600,78.453200,0.000000
355.826249,10120.462800,-392.266000,313.812800
355.826554,9963.556400,-156.906400,235.359600
355.826860,9728.196800,78.453200,156.906400
355.827166,10042.009600,0.000000,0.000000
355.827471,9963.556400,78.453200,0.000000
355.827777,10042.009600,156.906400,0.000000
355.828082,9963.556400,156.906400,0.000000
355.828388,9728.196800,392.266000,78.453200
355.828694,9963.556400,313.812800,313.812800
355.828999,10198.916000,1176.798000,-235.359600
355.829305,9806.650000,392.266000,627.625600
355.829610,10826.541600,78.453200,313.812800
355.829916,10277.369200,313.812800,235.359600
355.830222,10434.275600,392.266000,0.000000
355.830527,10042.009600,0.000000,0.000000
355.830833,9885.103200,78.453200,0.000000
355.831138,10042.009600,156.906400,0.000000
355.831444,10042.009600,0.000000,0.000000
355.831750,10120.462800,235.359600,0.000000
355.832055,9885.103200,313.812800,156.906400
355.832361,9885.103200,235.359600,235.359600
355.832666,9963.556400,313.812800,235.359600
355.832972,10042.009600,235.359600,470.719200
355.833278,10198.916000,-156.906400,235.359600
355.833583,9963.556400,313.812800,313.812800
355.833889,10042.009600,235.359600,156.906400
355.834195,9963.556400,78.453200,313.812800
355.834500,10042.009600,156.906400,0.000000
355.834806,10120.462800,627.625600,470.719200
355.835111,9963.556400,392.266000,156.906400
355.835417,10042.009600,235.359600,156.906400
355.835723,9963.556400,235.359600,156.906400
355.836028,10042.009600,235.359600,78.453200
355.836334,9806.650000,470.719200,549.172400
355.836639,10042.009600,235.359600,235.359600
355.836945,9963.556400,156.906400,235.359600
355.837251,9963.556400,470.719200,156.906400
355.837556,10042.009600,235.359600,235.359600
355.837862,9885.103200,392.266000,627.625600
355.838167,10042.009600,470.719200,313.812800
355.838473,9806.650000,470.719200,313.812800
355.838779,10042.009600,235.359600,78.453200
355.839084,9885.103200,313.812800,156.906400
355.839390,10591.182000,470.719200,78.453200
355.839695,9492.837200,470.719200,78.453200
355.840001,10042.009600,313.812800,0.000000
355.840307,9963.556400,313.812800,0.000000
355.840612,10120.462800,78.453200,78.453200
355.840918,10042.009600,156.906400,0.000000
355.841224,10042.009600,78.453200,0.000000
355.841529,10042.009600,78.453200,235.359600
355.841835,9963.556400,78.453200,156.906400
355.842140,9885.103200,156.906400,78.453200
355.842446,9963.556400,0.000000,156.906400
355.842752,10042.009600,0.000000,392.266000
355.843057,9963.556400,78.453200,235.359600
355.843363,10042.009600,235.359600,156.906400
355.843668,9963.556400,235.359600,0.000000
355.843974,10042.009600,156.906400,78.453200
355.844280,10198.916000,0.000000,78.453200
355.844585,10042.009600,78.453200,156.906400
355.844891,10042.009600,78.453200,78.453200
355.845196,9806.650000,78.453200,235.359600
355.845502,10042.009600,0.000000,0.000000
355.845808,10434.275600,78.453200,156.906400
355.846113,9963.556400,0.000000,156.906400
355.846419,8943.664800,235.359600,-235.359600
355.846725,9728.196800,0.000000,0.000000
355.847030,9885.103200,0.000000,0.000000
355.847336,8943.664800,78.453200,-392.266000
355.847641,9963.556400,-627.625600,78.453200
355.847947,10042.009600,549.172400,-313.812800
355.848253,9335.930800,0.000000,235.359600
355.848558,9806.650000,78.453200,78.453200
355.848864,9571.290400,-235.359600,1019.891600
355.849169,10042.009600,156.906400,235.359600
355.849475,9885.103200,78.453200,0.000000
355.849781,9885.103200,313.812800,0.000000
355.850086,9885.103200,235.359600,0.000000
355.850392,10120.462800,78.453200,235.359600
355.850697,9806.650000,78.453200,0.000000
355.851003,9963.556400,78.453200,0.000000
355.851309,9806.650000,0.000000,0.000000
355.851614,10042.009600,0.000000,156.906400
355.851920,10042.009600,0.000000,0.000000
355.852225,10042.009600,313.812800,0.000000
355.852531,10042.009600,78.453200,78.453200
355.852837,10042.009600,0.000000,0.000000
355.853142,9963.556400,78.453200,0.000000
355.853448,9963.556400,0.000000,0.000000
355.853754,9885.103200,0.000000,0.000000
355.854059,9885.103200,0.000000,0.000000
355.854365,10042.009600,-156.906400,0.000000
355.854670,9649.743600,78.453200,0.000000
355.854976,9963.556400,0.000000,0.000000
355.855282,9806.650000,0.000000,78.453200
355.855587,9885.103200,78.453200,0.000000
355.855893,9963.556400,78.453200,156.906400
355.856198,9963.556400,0.000000,0.000000
355.856504,9963.556400,0.000000,0.000000
355.856810,9728.196800,313.812800,235.359600
355.857115,9963.556400,0.000000,0.000000
355.857421,9963.556400,0.000000,0.000000
355.857726,9963.556400,0.000000,0.000000
355.858032,10042.009600,0.000000,0.000000
355.858338,9571.290400,156.906400,156.906400
355.858643,9885.103200,0.000000,313.812800
355.858949,9963.556400,0.000000,78.453200
355.859254,10120.462800,0.000000,0.000000
355.859560,10042.009600,0.000000,0.000000
355.859866,10042.009600,0.000000,235.359600
355.860171,9885.103200,0.000000,0.000000
355.860477,10042.009600,78.453200,0.000000
355.860783,10042.009600,0.000000,0.000000
355.861088,9885.103200,0.000000,0.000000
355.861394,10042.009600,549.172400,235.359600
355.861699,9806.650000,0.000000,0.000000
355.862005,10042.009600,0.000000,0.000000
355.862311,10042.009600,0.000000,78.453200
355.862616,10120.462800,0.000000,78.453200
355.862922,10042.009600,78.453200,0.000000
355.863227,10042.009600,470.719200,0.000000
355.863533,9885.103200,235.359600,0.000000
355.863839,9806.650000,156.906400,0.000000
355.864144,10042.009600,0.000000,0.000000
355.864450,10355.822400,-156.906400,0.000000
355.864755,10042.009600,156.906400,-313.812800
355.865061,9963.556400,0.000000,0.000000
355.865367,10042.009600,78.453200,0.000000
355.865672,10042.009600,0.000000,-78.453200
355.865978,9963.556400,156.906400,0.000000
355.866283,9414.384000,470.719200,0.000000
355.866589,10277.369200,156.906400,235.359600
355.866895,9963.556400,0.000000,0.000000
355.867200,10042.009600,0.000000,78.453200
355.867506,9963.556400,0.000000,0.000000
355.867812,9885.103200,78.453200,0.000000
355.868117,10042.009600,78.453200,-156.906400
355.868423,9885.103200,-235.359600,0.000000
355.868728,10042.009600,-235.359600,0.000000
355.869034,10042.009600,-156.906400,0.000000
355.869340,10120.462800,-235.359600,0.000000
355.869645,10042.009600,156.906400,-470.719200
355.869951,10198.916000,156.906400,-235.359600
355.870256,10042.009600,0.000000,0.000000
355.870562,10042.009600,78.453200,0.000000
355.870868,10042.009600,0.000000,0.000000
355.871173,9963.556400,0.000000,156.906400
355.871479,10120.462800,-235.359600,0.000000
355.871784,10042.009600,-235.359600,0.000000
355.872090,9963.556400,-235.359600,-392.266000
355.872396,9806.650000,-156.906400,-156.906400
355.872701,9885.103200,0.000000,-235.359600
355.873007,10277.369200,-313.812800,-313.812800
355.873313,10198.916000,0.000000,-235.359600
355.873618,10042.009600,0.000000,156.906400
355.873924,9963.556400,235.359600,0.000000
355.874229,9806.650000,78.453200,0.000000
355.874535,10042.009600,78.453200,-235.359600
355.874841,9963.556400,0.000000,-156.906400
355.875146,10042.009600,-235.359600,0.000000
355.875452,10042.009600,0.000000,-235.359600
355.875757,9885.103200,0.000000,-235.359600
355.876063,9885.103200,-156.906400,0.000000
355.876369,10120.462800,0.000000,0.000000
355.876674,10042.009600,0.000000,0.000000
355.876980,10120.462800,0.000000,156.906400
355.877285,10042.009600,0.000000,-235.359600
355.877591,9806.650000,392.266000,-706.078800
355.877897,9963.556400,235.359600,0.000000
355.878202,9963.556400,0.000000,0.000000
355.878508,9806.650000,0.000000,-156.906400
355.878813,9963.556400,0.000000,0.000000
355.879119,10042.009600,0.000000,-313.812800
355.879425,10277.369200,-235.359600,0.000000
355.879730,10042.009600,0.000000,0.000000
355.880036,10042.009600,0.000000,0.000000
355.880342,10042.009600,0.000000,0.000000
355.880647,9963.556400,78.453200,-313.812800
355.880953,10120.462800,235.359600,78.453200
355.881258,10042.009600,0.000000,0.000000
355.881564,9885.103200,0.000000,78.453200
355.881870,10042.009600,-235.359600,0.000000
355.882175,9885.103200,0.000000,-156.906400
355.882481,10591.182000,-706.078800,-156.906400
355.882786,9728.196800,0.000000,156.906400
355.883092,9571.290400,78.453200,862.985200
355.883398,10904.994800,-235.359600,313.812800
355.883703,10198.916000,470.719200,235.359600
355.884009,10042.009600,-313.812800,0.000000
355.884314,10042.009600,549.172400,627.625600
355.884620,10042.009600,0.000000,0.000000
355.884926,10042.009600,0.000000,0.000000
355.885231,9963.556400,-235.359600,78.453200
355.885537,9963.556400,0.000000,0.000000
