##drops=0,overflows=0,time_per_sample=0.000305611,start_range=0.000056,end_range=0.000037
#time,accel_x,accel_y,accel_z
360.377367,9963.556400,0.000000,156.906400
360.377672,9963.556400,0.000000,0.000000
360.377978,10120.462800,78.453200,0.000000
360.378283,10042.009600,0.000000,0.000000
360.378589,10042.009600,0.000000,0.000000
360.378895,9963.556400,78.453200,0.000000
360.379200,9728.196800,784.532000,0.000000
360.379506,9806.650000,470.719200,-313.812800
360.379812,10042.009600,941.438400,-235.359600
360.380117,9885.103200,1569.064000,0.000000
360.380423,9885.103200,1961.330000,0.000000
360.380728,10042.009600,2510.502400,627.625600
360.381034,10355.822400,2510.502400,235.359600
360.381340,9963.556400,2510.502400,156.906400
360.381645,9885.103200,2510.502400,392.266000
360.381951,9806.650000,2432.049200,156.906400
360.382256,9885.103200,2353.596000,0.000000
360.382562,9885.103200,2118.236400,-235.359600
360.382868,9806.650000,2588.955600,0.000000
360.383173,9885.103200,3216.581200,0.000000
360.383479,9885.103200,3687.300400,-392.266000
360.383784,10042.009600,4471.832400,0.000000
360.384090,10591.182000,4864.098400,313.812800
360.384396,10042.009600,5491.724000,627.625600
360.384701,10042.009600,5256.364400,470.719200
360.385007,9963.556400,5256.364400,784.532000
360.385313,9806.650000,4942.551600,470.719200
360.385618,9100.571200,4864.098400,470.719200
360.385924,9571.290400,4707.192000,235.359600
360.386229,9414.384000,5099.458000,235.359600
360.386535,9728.196800,5334.817600,156.906400
360.386841,9806.650000,6276.256000,156.906400
360.387146,10512.728800,7139.241200,862.985200
360.387452,9806.650000,6825.428400,313.812800
360.387757,10277.369200,6982.334800,549.172400
360.388063,11140.354400,8316.039200,0.000000
360.388369,9335.930800,7766.866800,0.000000
360.388674,10042.009600,7296.147600,235.359600
360.388980,9885.103200,7217.694400,0.000000
360.389285,9492.837200,6903.881600,0.000000
360.389591,9414.384000,7609.960400,-392.266000
360.389897,9492.837200,7766.866800,0.000000
360.390202,9963.556400,8394.492400,0.000000
360.390508,10120.462800,9649.743600,0.000000
360.390814,10748.088400,9885.103200,627.625600
360.391119,10904.994800,10120.462800,784.532000
360.391425,10983.448000,10591.182000,862.985200
360.391730,10669.635200,10042.009600,549.172400
360.392036,10591.182000,10591.182000,706.078800
360.392342,10355.822400,9728.196800,549.172400
360.392647,10277.369200,9257.477600,235.359600
360.392953,9728.196800,9335.930800,235.359600
360.393258,10198.916000,9885.103200,0.000000
360.393564,10277.369200,10512.728800,78.453200
360.393870,10120.462800,10669.635200,392.266000
360.394175,10669.635200,9963.556400,706.078800
360.394481,11140.354400,10042.009600,1098.344800
360.394786,10983.448000,10512.728800,941.438400
360.395092,10591.182000,10355.822400,1098.344800
360.395398,10591.182000,10277.369200,627.625600
360.395703,8629.852000,7923.773200,235.359600
360.396009,11140.354400,8080.679600,78.453200
360.396315,10120.462800,8080.679600,-392.266000
360.396620,9492.837200,7296.147600,-392.266000
360.396926,9649.743600,8708.305200,-235.359600
360.397231,10120.462800,7453.054000,-235.359600
360.397537,11061.901200,7453.054000,235.359600
360.397843,10042.009600,9100.571200,706.078800
360.398148,11532.620400,9022.118000,706.078800
360.398454,10355.822400,7845.320000,392.266000
360.398759,11767.980000,7217.694400,862.985200
360.399065,10355.822400,7139.241200,470.719200
360.399371,10198.916000,6511.615600,156.906400
360.399676,9885.103200,6040.896400,706.078800
360.399982,9806.650000,5570.177200,0.000000
360.400287,10748.088400,4001.113200,235.359600
360.400593,10748.088400,4236.472800,78.453200
360.400899,10591.182000,5491.724000,235.359600
360.401204,10434.275600,4785.645200,0.000000
360.401510,11532.620400,5648.630400,470.719200
360.401815,11218.807600,4550.285600,470.719200
360.402121,11140.354400,4393.379200,549.172400
360.402427,10042.009600,4393.379200,470.719200
360.402732,10277.369200,2902.768400,235.359600
360.403038,9492.837200,1882.876800,0.000000
360.403344,9806.650000,1176.798000,-235.359600
360.403649,9571.290400,862.985200,-392.266000
360.403955,9414.384000,1019.891600,0.000000
360.404260,10042.009600,1490.610800,-313.812800
360.404566,9649.743600,1569.064000,-706.078800
360.404872,10120.462800,1882.876800,-392.266000
360.405177,9885.103200,1647.517200,-235.359600
360.405483,9806.650000,1490.610800,-313.812800
360.405788,9963.556400,0.000000,-392.266000
360.406094,9649.743600,706.078800,549.172400
360.406400,9885.103200,-156.906400,862.985200
360.406705,9963.556400,-2196.689600,156.906400
360.407011,10120.462800,-706.078800,-156.906400
360.407316,9885.103200,-1098.344800,0.000000
360.407622,10042.009600,-1176.798000,0.000000
360.407928,11061.901200,-784.532000,-392.266000
360.408233,10042.009600,-1647.517200,-156.906400
360.408539,10198.916000,-1569.064000,-235.359600
360.408845,10591.182000,-1019.891600,78.453200
360.409150,10434.275600,-784.532000,-392.266000
360.409456,10120.462800,-2196.689600,0.000000
360.409761,10120.462800,-2745.862000,0.000000
360.410067,10042.009600,-2824.315200,-313.812800
360.410373,9728.196800,-3844.206800,-313.812800
360.410678,9414.384000,-3765.753600,0.000000
360.410984,9806.650000,-4158.019600,-470.719200
360.411289,9571.290400,-4550.285600,-313.812800
360.411595,9885.103200,-4471.832400,0.000000
360.411901,9806.650000,-4550.285600,-313.812800
360.412206,9963.556400,-3844.206800,-313.812800
360.412512,10120.462800,-4314.926000,-627.625600
360.412817,9492.837200,-4707.192000,-627.625600
360.413123,9257.477600,-5334.817600,-627.625600
360.413429,9257.477600,-6276.256000,-549.172400
360.413734,9414.384000,-4707.192000,-313.812800
360.414040,9649.743600,-6511.615600,-313.812800
360.414346,9963.556400,-7296.147600,-313.812800
360.414651,9806.650000,-5962.443200,-313.812800
360.414957,9806.650000,-5727.083600,-706.078800
360.415262,10748.088400,-4471.832400,-235.359600
360.415568,10198.916000,-4864.098400,-549.172400
360.415874,10042.009600,-5648.630400,-549.172400
360.416179,9414.384000,-6276.256000,-470.719200
360.416485,9963.556400,-6119.349600,-235.359600
360.416790,10355.822400,-6119.349600,392.266000
360.417096,10277.369200,-6276.256000,470.719200
360.417402,9257.477600,-7060.788000,549.172400
360.417707,10120.462800,-6276.256000,392.266000
360.418013,9728.196800,-5727.083600,235.359600
360.418318,10042.009600,-5177.911200,-235.359600
360.418624,10042.009600,-4942.551600,-784.532000
360.418930,9728.196800,-5021.004800,-1019.891600
360.419235,9179.024400,-5099.458000,-706.078800
360.419541,9571.290400,-4785.645200,-313.812800
360.419847,9649.743600,-5413.270800,313.812800
360.420152,9649.743600,-5177.911200,862.985200
360.420458,9179.024400,-5727.083600,941.438400
360.420763,9806.650000,-6040.896400,1019.891600
360.421069,9806.650000,-5648.630400,706.078800
360.421375,10198.916000,-4393.379200,549.172400
360.421680,10042.009600,-2588.955600,0.000000
360.421986,9022.118000,-1490.610800,-549.172400
360.422291,9257.477600,-2510.502400,-706.078800
360.422597,8551.398800,-3059.674800,-313.812800
360.422903,8865.211600,-3451.940800,0.000000
360.423208,9100.571200,-4079.566400,862.985200
360.423514,9728.196800,-3844.206800,1333.704400
360.423819,9571.290400,-4393.379200,1333.704400
360.424125,10277.369200,-3138.128000,1176.798000
360.424431,9492.837200,-2275.142800,627.625600
360.424736,9492.837200,-1725.970400,0.000000
360.425042,9492.837200,0.000000,-313.812800
360.425348,8316.039200,-941.438400,-78.453200
360.425653,9963.556400,-2275.142800,-392.266000
360.425959,9257.477600,-1569.064000,0.000000
360.426264,9179.024400,-1725.970400,627.625600
360.426570,9806.650000,-1490.610800,627.625600
360.426876,9414.384000,-1490.610800,941.438400
360.427181,9728.196800,-1647.517200,1176.798000
360.427487,9885.103200,-941.438400,941.438400
360.427792,10198.916000,-627.625600,941.438400
360.428098,9963.556400,78.453200,313.812800
360.428404,9885.103200,941.438400,78.453200
360.428709,9728.196800,627.625600,-156.906400
360.429015,9728.196800,627.625600,-549.172400
360.429320,9257.477600,235.359600,-941.438400
360.429626,9728.196800,-392.266000,-156.906400
360.429932,9492.837200,-1019.891600,-156.906400
360.430237,9649.743600,-1333.704400,549.172400
360.430543,9806.650000,-627.625600,862.985200
360.430849,9963.556400,235.359600,1098.344800
360.431154,10198.916000,627.625600,941.438400
360.431460,10120.462800,1490.610800,392.266000
360.431765,9885.103200,1882.876800,-470.719200
360.432071,9963.556400,1804.423600,-1019.891600
360.432377,9649.743600,1961.330000,-1255.251200
360.432682,9728.196800,1490.610800,-862.985200
360.432988,9885.103200,1255.251200,-706.078800
360.433293,9963.556400,706.078800,78.453200
360.433599,10198.916000,862.985200,78.453200
360.433905,10120.462800,1333.704400,235.359600
360.434210,10198.916000,1647.517200,549.172400
360.434516,10434.275600,2196.689600,0.000000
360.434821,10591.182000,3687.300400,-313.812800
360.435127,10042.009600,3451.940800,-627.625600
360.435433,10198.916000,2981.221600,-941.438400
360.435738,10591.182000,2902.768400,-706.078800
360.436044,10355.822400,2275.142800,-1019.891600
360.436350,10355.822400,2353.596000,0.000000
360.436655,10355.822400,2510.502400,0.000000
360.436961,10277.369200,3059.674800,0.000000
360.437266,10277.369200,3608.847200,-392.266000
360.437572,10042.009600,4079.566400,-627.625600
360.437878,10042.009600,4001.113200,-1098.344800
360.438183,9571.290400,3138.128000,-1019.891600
360.438489,9335.930800,3922.660000,-706.078800
360.438794,10983.448000,4707.192000,-156.906400
360.439100,9649.743600,3765.753600,-941.438400
360.439406,10042.009600,3608.847200,78.453200
360.439711,10120.462800,3451.940800,156.906400
360.440017,9806.650000,3373.487600,156.906400
360.440322,10042.009600,4236.472800,0.000000
360.440628,10591.182000,4079.566400,235.359600
360.440934,9649.743600,3922.660000,-392.266000
360.441239,10198.916000,5021.004800,-784.532000
360.441545,10355.822400,4628.738800,-784.532000
360.441851,10826.541600,5491.724000,-313.812800
360.442156,10277.369200,4707.192000,392.266000
360.442462,10904.994800,3451.940800,78.453200
360.442767,10434.275600,3765.753600,549.172400
360.443073,10983.448000,3765.753600,313.812800
360.443379,10042.009600,4314.926000,78.453200
360.443684,10434.275600,2824.315200,78.453200
360.443990,10826.541600,2745.862000,0.000000
360.444295,10120.462800,3765.753600,0.000000
360.444601,9885.103200,3138.128000,-313.812800
360.444907,10120.462800,2667.408800,-549.172400
360.445212,10277.369200,2745.862000,-549.172400
360.445518,10748.088400,2510.502400,-549.172400
360.445823,10120.462800,2275.142800,-470.719200
360.446129,10042.009600,2353.596000,-470.719200
360.446435,10355.822400,2196.689600,-235.359600
360.446740,10355.822400,1882.876800,0.000000
360.447046,10277.369200,1333.704400,470.719200
360.447352,10355.822400,1961.330000,156.906400
360.447657,10591.182000,1882.876800,0.000000
360.447963,10277.369200,1412.157600,-156.906400
360.448268,10277.369200,1333.704400,-313.812800
360.448574,10669.635200,1569.064000,-470.719200
360.448880,10277.369200,549.172400,-549.172400
360.449185,10591.182000,706.078800,-156.906400
360.449491,10277.369200,627.625600,156.906400
360.449796,10434.275600,470.719200,313.812800
360.450102,10826.541600,0.000000,470.719200
360.450408,10355.822400,313.812800,549.172400
360.450713,10591.182000,470.719200,0.000000
360.451019,10355.822400,706.078800,0.000000
360.451324,10277.369200,235.359600,-470.719200
360.451630,10120.462800,0.000000,-1255.251200
360.451936,10355.822400,-313.812800,-784.532000
360.452241,10042.009600,-784.532000,-392.266000
360.452547,10042.009600,-1725.970400,156.906400
360.452853,10042.009600,-1019.891600,78.453200
360.453158,10042.009600,-627.625600,470.719200
360.453464,10355.822400,-706.078800,313.812800
360.453769,10198.916000,0.000000,235.359600
360.454075,10042.009600,-392.266000,-156.906400
360.454381,9963.556400,-470.719200,-470.719200
360.454686,9571.290400,-1882.876800,-392.266000
360.454992,10042.009600,-2275.142800,-627.625600
360.455297,9492.837200,-549.172400,-392.266000
360.455603,9022.118000,-2510.502400,235.359600
360.455909,9885.103200,-2353.596000,706.078800
360.456214,9649.743600,-2510.502400,784.532000
360.456520,9335.930800,-2510.502400,78.453200
360.456825,9414.384000,-1725.970400,78.453200
360.457131,9649.743600,-1804.423600,0.000000
360.457437,9571.290400,-1490.610800,-313.812800
360.457742,9649.743600,-1647.517200,-470.719200
360.458048,9649.743600,-2039.783200,-313.812800
360.458354,10042.009600,-2039.783200,78.453200
360.458659,10042.009600,-3059.674800,0.000000
360.458965,10120.462800,-3373.487600,549.172400
360.459270,10434.275600,-3216.581200,862.985200
360.459576,10434.275600,-2902.768400,1176.798000
360.459882,9885.103200,-1961.330000,0.000000
360.460187,8943.664800,-2510.502400,-627.625600
360.460493,9885.103200,-2510.502400,-706.078800
360.460798,9806.650000,-2039.783200,-1019.891600
360.461104,9257.477600,-3059.674800,-784.532000
360.461410,11061.901200,-3530.394000,0.000000
360.461715,10042.009600,-2981.221600,-78.453200
360.462021,9963.556400,-3844.206800,235.359600
360.462326,9728.196800,-3373.487600,313.812800
360.462632,9963.556400,-3451.940800,470.719200
360.462938,10042.009600,-2745.862000,549.172400
360.463243,9100.571200,-1961.330000,78.453200
360.463549,9571.290400,-2353.596000,156.906400
360.463854,10042.009600,-2902.768400,-156.906400
360.464160,8551.398800,-2745.862000,-627.625600
360.464466,9806.650000,-2902.768400,-1098.344800
360.464771,9492.837200,-2981.221600,-627.625600
360.465077,9571.290400,-3451.940800,-313.812800
360.465383,10042.009600,-3216.581200,0.000000
360.465688,9728.196800,-2902.768400,313.812800
360.465994,9963.556400,-2981.221600,941.438400
360.466299,10198.916000,-2039.783200,0.000000
360.466605,9335.930800,-2353.596000,313.812800
360.466911,10355.822400,-1176.798000,470.719200
360.467216,9414.384000,-1569.064000,-156.906400
360.467522,9885.103200,-2432.049200,78.453200
360.467827,9335.930800,-1490.610800,0.000000
360.468133,9649.743600,-2196.689600,78.453200
360.468439,10042.009600,-2510.502400,313.812800
360.468744,10120.462800,-1569.064000,941.438400
360.469050,9806.650000,-1725.970400,1098.344800
360.469355,9806.650000,-784.532000,1804.423600
360.469661,9806.650000,-784.532000,862.985200
360.469967,10042.009600,-549.172400,706.078800
360.470272,9885.103200,-549.172400,470.719200
360.470578,9885.103200,-1098.344800,78.453200
360.470884,9571.290400,-1333.704400,313.812800
360.471189,9728.196800,-1019.891600,392.266000
360.471495,9728.196800,-1412.157600,470.719200
360.471800,9492.837200,-1412.157600,470.719200
360.472106,9414.384000,-941.438400,862.985200
360.472412,10198.916000,0.000000,549.172400
360.472717,9649.743600,-235.359600,235.359600
360.473023,9885.103200,470.719200,313.812800
360.473328,9806.650000,549.172400,0.000000
360.473634,9649.743600,0.000000,0.000000
360.473940,9335.930800,313.812800,-235.359600
360.474245,9492.837200,-313.812800,-156.906400
360.474551,9649.743600,-706.078800,-313.812800
360.474856,9649.743600,-549.172400,78.453200
360.475162,9335.930800,-313.812800,235.359600
360.475468,9806.650000,0.000000,784.532000
360.475773,10042.009600,156.906400,313.812800
360.476079,9963.556400,706.078800,313.812800
360.476385,10120.462800,1333.704400,0.000000
360.476690,10042.009600,1412.157600,-392.266000
360.476996,10042.009600,1176.798000,-862.985200
360.477301,10120.462800,1019.891600,-941.438400
360.477607,9885.103200,1019.891600,-784.532000
360.477913,9963.556400,549.172400,0.000000
360.478218,10042.009600,549.172400,0.000000
360.478524,10042.009600,392.266000,0.000000
360.478829,10512.728800,1176.798000,0.000000
360.479135,9414.384000,1882.876800,0.000000
360.479441,10120.462800,1725.970400,-313.812800
360.479746,10198.916000,2745.862000,-1490.610800
360.480052,9100.571200,1725.970400,-627.625600
360.480357,9571.290400,1961.330000,0.000000
360.480663,9806.650000,1412.157600,-156.906400
360.480969,10120.462800,1255.251200,0.000000
360.481274,10042.009600,1647.517200,0.000000
360.481580,9885.103200,1804.423600,0.000000
360.481886,10198.916000,1647.517200,470.719200
360.482191,10042.009600,2510.502400,0.000000
360.482497,10042.009600,2745.862000,-235.359600
360.482802,9806.650000,2824.315200,-313.812800
360.483108,10120.462800,2118.236400,-313.812800
360.483414,9414.384000,1647.517200,78.453200
360.483719,9571.290400,1961.330000,-156.906400
360.484025,10355.822400,2981.221600,-313.812800
360.484330,10042.009600,2510.502400,-235.359600
360.484636,9728.196800,2588.955600,-392.266000
360.484942,10591.182000,2902.768400,235.359600
360.485247,10042.009600,2667.408800,-156.906400
360.485553,10042.009600,2745.862000,0.000000
360.485858,10120.462800,3373.487600,-392.266000
360.486164,10120.462800,2981.221600,0.000000
360.486470,10277.369200,2432.049200,0.000000
360.486775,10277.369200,2510.502400,0.000000
360.487081,10355.822400,2902.768400,-235.359600
360.487387,10434.275600,2745.862000,0.000000
360.487692,10042.009600,2667.408800,0.000000
360.487998,10748.088400,3059.674800,784.532000
360.488303,10042.009600,3138.128000,0.000000
360.488609,10198.916000,2745.862000,0.000000
360.488915,10042.009600,3138.128000,78.453200
360.489220,10120.462800,3216.581200,0.000000
360.489526,10042.009600,2510.502400,78.453200
360.489831,9335.930800,2588.955600,0.000000
360.490137,10355.822400,2353.596000,-627.625600
360.490443,9885.103200,1961.330000,-470.719200
360.490748,10512.728800,392.266000,0.000000
360.491054,9728.196800,1098.344800,-235.359600
360.491359,10198.916000,2039.783200,156.906400
360.491665,9414.384000,1412.157600,-235.359600
360.491971,10434.275600,2196.689600,235.359600
360.492276,10277.369200,1725.970400,0.000000
360.492582,10042.009600,1882.876800,0.000000
360.492888,10042.009600,2039.783200,-627.625600
360.493193,10355.822400,1725.970400,0.000000
360.493499,10434.275600,1961.330000,-235.359600
360.493804,10591.182000,627.625600,78.453200
360.494110,10198.916000,-235.359600,78.453200
360.494416,10355.822400,313.812800,-470.719200
360.494721,10355.822400,470.719200,-470.719200
360.495027,10042.009600,706.078800,-549.172400
360.495332,10355.822400,941.438400,-392.266000
360.495638,10355.822400,941.438400,-156.906400
360.495944,10355.822400,313.812800,706.078800
360.496249,11218.807600,-313.812800,0.000000
360.496555,10277.369200,627.625600,-156.906400
360.496860,10591.182000,392.266000,0.000000
360.497166,10355.822400,-470.719200,0.000000
360.497472,10198.916000,0.000000,-156.906400
360.497777,10120.462800,-392.266000,0.000000
360.498083,10042.009600,-78.453200,-549.172400
360.498389,10120.462800,-235.359600,-313.812800
360.498694,10042.009600,-549.172400,0.000000
360.499000,10120.462800,-941.438400,313.812800
360.499305,10277.369200,-862.985200,235.359600
360.499611,9806.650000,-784.532000,156.906400
360.499917,9963.556400,-392.266000,-156.906400
360.500222,10277.369200,-706.078800,0.000000
360.500528,10120.462800,-862.985200,0.000000
360.500833,10669.635200,-1098.344800,0.000000
360.501139,10355.822400,-784.532000,156.906400
360.501445,10198.916000,-1176.798000,235.359600
360.501750,10042.009600,-1098.344800,0.000000
360.502056,10198.916000,-941.438400,0.000000
360.502361,10198.916000,-1412.157600,235.359600
360.502667,9963.556400,-1412.157600,0.000000
360.502973,10042.009600,-1176.798000,-392.266000
360.503278,9806.650000,-1333.704400,-156.906400
360.503584,9885.103200,-941.438400,-156.906400
360.503890,10120.462800,-941.438400,313.812800
360.504195,10198.916000,-1176.798000,235.359600
360.504501,10042.009600,-1255.251200,313.812800
360.504806,9885.103200,-1725.970400,235.359600
360.505112,9963.556400,-1725.970400,156.906400
360.505418,10042.009600,-1412.157600,-392.266000
360.505723,9414.384000,-1961.330000,-156.906400
360.506029,9335.930800,-1804.423600,-313.812800
360.506334,9728.196800,-1647.517200,-392.266000
360.506640,9649.743600,-1804.423600,-392.266000
360.506946,9649.743600,-941.438400,0.000000
360.507251,9806.650000,-1176.798000,0.000000
360.507557,9728.196800,-1333.704400,235.359600
360.507862,9649.743600,-1804.423600,627.625600
360.508168,9649.743600,-2118.236400,549.172400
360.508474,9649.743600,-2118.236400,549.172400
360.508779,9100.571200,-2275.142800,0.000000
360.509085,9649.743600,-1961.330000,0.000000
360.509391,9963.556400,-1255.251200,-313.812800
360.509696,9728.196800,-1725.970400,0.000000
360.510002,9728.196800,-1725.970400,0.000000
360.510307,9728.196800,-1333.704400,0.000000
360.510613,9885.103200,-1569.064000,0.000000
360.510919,9728.196800,-1490.610800,0.000000
360.511224,9492.837200,-2118.236400,156.906400
360.511530,9649.743600,-1647.517200,0.000000
360.511835,9571.290400,-1490.610800,156.906400
360.512141,9806.650000,-1804.423600,0.000000
360.512447,9492.837200,-2039.783200,235.359600
360.512752,9806.650000,-2039.783200,156.906400
360.513058,10042.009600,-1804.423600,0.000000
360.513363,9963.556400,-1569.064000,235.359600
360.513669,9963.556400,-1098.344800,235.359600
360.513975,10042.009600,-1019.891600,706.078800
360.514280,10042.009600,-1882.876800,549.172400
360.514586,9100.571200,-2196.689600,941.438400
360.514892,9649.743600,-1882.876800,1098.344800
360.515197,10591.182000,-2981.221600,784.532000
360.515503,9414.384000,-1019.891600,235.359600
360.515808,10042.009600,-1725.970400,627.625600
360.516114,10042.009600,-1647.517200,627.625600
360.516420,9728.196800,-1255.251200,0.000000
360.516725,9649.743600,-862.985200,0.000000
360.517031,10042.009600,-706.078800,235.359600
360.517336,10120.462800,-862.985200,392.266000
360.517642,9571.290400,-1019.891600,392.266000
360.517948,9963.556400,-941.438400,392.266000
360.518253,10277.369200,-1176.798000,549.172400
360.518559,9806.650000,-1019.891600,235.359600
360.518864,9963.556400,-470.719200,156.906400
360.519170,10277.369200,-470.719200,78.453200
360.519476,10277.369200,0.000000,313.812800
360.519781,10198.916000,78.453200,627.625600
360.520087,10277.369200,-235.359600,78.453200
360.520392,10042.009600,313.812800,-235.359600
360.520698,10042.009600,0.000000,0.000000
360.521004,9728.196800,0.000000,0.000000
360.521309,9963.556400,156.906400,-627.625600
360.521615,9963.556400,-235.359600,-156.906400
360.521921,9728.196800,-156.906400,-235.359600
360.522226,9728.196800,156.906400,-235.359600
360.522532,9728.196800,156.906400,0.000000
360.522837,10198.916000,0.000000,78.453200
360.523143,9728.196800,470.719200,0.000000
360.523449,10042.009600,941.438400,235.359600
360.523754,9963.556400,706.078800,0.000000
360.524060,9885.103200,706.078800,0.000000
360.524365,10042.009600,1176.798000,0.000000
360.524671,10042.009600,706.078800,-313.812800
360.524977,9571.290400,470.719200,-313.812800
360.525282,9885.103200,549.172400,-313.812800
360.525588,10277.369200,627.625600,0.000000
360.525893,10434.275600,392.266000,313.812800
360.526199,10434.275600,941.438400,-78.453200
360.526505,10434.275600,1255.251200,0.000000
360.526810,10434.275600,1490.610800,0.000000
360.527116,10355.822400,1412.157600,-392.266000
360.527422,10042.009600,1490.610800,-470.719200
360.527727,10042.009600,1725.970400,-706.078800
360.528033,10120.462800,549.172400,-313.812800
360.528338,9963.556400,627.625600,-156.906400
360.528644,9963.556400,706.078800,-156.906400
360.528950,10198.916000,784.532000,-156.906400
360.529255,10591.182000,706.078800,-235.359600
360.529561,10120.462800,1333.704400,0.000000
360.529866,10042.009600,1725.970400,0.000000
360.530172,10512.728800,941.438400,0.000000
360.530478,9728.196800,1412.157600,-156.906400
360.530783,10120.462800,1725.970400,78.453200
360.531089,10042.009600,941.438400,-313.812800
360.531394,9806.650000,862.985200,-313.812800
360.531700,9963.556400,470.719200,0.000000
360.532006,10120.462800,627.625600,0.000000
360.532311,10042.009600,313.812800,235.359600
360.532617,10277.369200,1255.251200,-235.359600
360.532923,9100.571200,2432.049200,0.000000
360.533228,10355.822400,1255.251200,-156.906400
360.533534,10591.182000,1804.423600,0.000000
360.533839,9728.196800,1882.876800,549.172400
360.534145,10591.182000,235.359600,-706.078800
360.534451,10042.009600,549.172400,-392.266000
360.534756,9885.103200,549.172400,-313.812800
360.535062,10042.009600,862.985200,-392.266000
360.535367,10355.822400,156.906400,0.000000
360.535673,10355.822400,706.078800,-470.719200
360.535979,10198.916000,1255.251200,-392.266000
360.536284,10198.916000,1333.704400,-313.812800
360.536590,10512.728800,1176.798000,0.000000
360.536895,10277.369200,1019.891600,78.453200
360.537201,10042.009600,1725.970400,-313.812800
360.537507,10198.916000,784.532000,0.000000
360.537812,9806.650000,549.172400,-156.906400
360.538118,9806.650000,627.625600,-235.359600
360.538424,9885.103200,156.906400,-235.359600
360.538729,10198.916000,235.359600,0.000000
360.539035,9806.650000,784.532000,0.000000
360.539340,10120.462800,941.438400,235.359600
360.539646,10277.369200,1019.891600,0.000000
360.539952,10591.182000,784.532000,0.000000
360.540257,10748.088400,78.453200,-235.359600
360.540563,9492.837200,235.359600,0.000000
360.540868,10277.369200,-313.812800,-392.266000
360.541174,10042.009600,0.000000,-235.359600
360.541480,9571.290400,0.000000,0.000000
360.541785,10120.462800,156.906400,0.000000
360.542091,10042.009600,0.000000,0.000000
360.542396,10042.009600,235.359600,0.000000
360.542702,10042.009600,392.266000,-313.812800
360.543008,10355.822400,235.359600,-392.266000
360.543313,10277.369200,549.172400,0.000000
360.543619,10042.009600,549.172400,-156.906400
360.543925,9963.556400,-156.906400,-313.812800
360.544230,10042.009600,-862.985200,-235.359600
360.544536,9728.196800,-862.985200,-156.906400
360.544841,9885.103200,-706.078800,-627.625600
360.545147,10198.916000,-392.266000,0.000000
360.545453,9728.196800,0.000000,0.000000
360.545758,10120.462800,0.000000,156.906400
360.546064,10277.369200,156.906400,0.000000
360.546369,10042.009600,0.000000,235.359600
360.546675,10512.728800,0.000000,-313.812800
360.546981,10042.009600,0.000000,0.000000
360.547286,9728.196800,-784.532000,-156.906400
360.547592,9806.650000,-1019.891600,0.000000
360.547897,9571.290400,-1176.798000,0.000000
360.548203,9885.103200,-1255.251200,392.266000
360.548509,9728.196800,-706.078800,156.906400
360.548814,9885.103200,-470.719200,235.359600
360.549120,10042.009600,706.078800,156.906400
360.549426,10120.462800,392.266000,0.000000
360.549731,10120.462800,0.000000,0.000000
360.550037,9649.743600,-313.812800,-470.719200
360.550342,9649.743600,-235.359600,-862.985200
360.550648,9335.930800,-1882.876800,78.453200
360.550954,10120.462800,-1647.517200,392.266000
360.551259,9571.290400,-1098.344800,549.172400
360.551565,9963.556400,-549.172400,0.000000
360.551870,10042.009600,-627.625600,313.812800
360.552176,9257.477600,0.000000,313.812800
360.552482,10669.635200,627.625600,0.000000
360.552787,10591.182000,0.000000,156.906400
360.553093,9963.556400,-313.812800,0.000000
360.553398,10042.009600,-706.078800,0.000000
360.553704,9728.196800,-1725.970400,156.906400
360.554010,9335.930800,-2039.783200,235.359600
360.554315,10042.009600,-1804.423600,313.812800
360.554621,9728.196800,-1882.876800,78.453200
360.554927,9728.196800,-1255.251200,78.453200
360.555232,10042.009600,-706.078800,235.359600
360.555538,9806.650000,0.000000,156.906400
360.555843,9649.743600,-313.812800,-392.266000
360.556149,9885.103200,-627.625600,-313.812800
360.556455,9571.290400,-941.438400,-470.719200
360.556760,9492.837200,-1333.704400,-313.812800
360.557066,9963.556400,-1804.423600,-156.906400
360.557371,9806.650000,-1882.876800,0.000000
360.557677,9492.837200,-1961.330000,313.812800
360.557983,9885.103200,-1255.251200,313.812800
360.558288,9885.103200,-784.532000,392.266000
360.558594,10042.009600,-156.906400,313.812800
360.558899,10277.369200,549.172400,392.266000
360.559205,10042.009600,-156.906400,78.453200
360.559511,9963.556400,0.000000,0.000000
360.559816,10042.009600,-313.812800,-235.359600
360.560122,9885.103200,-1019.891600,-235.359600
360.560428,9571.290400,-1019.891600,0.000000
360.560733,9728.196800,-1412.157600,235.359600
360.561039,9806.650000,-1412.157600,313.812800
360.561344,9728.196800,-941.438400,235.359600
360.561650,9728.196800,-235.359600,156.906400
360.561956,10042.009600,549.172400,156.906400
360.562261,9885.103200,784.532000,0.000000
360.562567,9963.556400,470.719200,0.000000
360.562872,9806.650000,549.172400,-235.359600
360.563178,9806.650000,-235.359600,-470.719200
360.563484,9571.290400,-784.532000,-235.359600
360.563789,9571.290400,-706.078800,78.453200
360.564095,9571.290400,-784.532000,0.000000
360.564400,9806.650000,-549.172400,0.000000
360.564706,9885.103200,0.000000,0.000000
360.565012,10042.009600,627.625600,0.000000
360.565317,10120.462800,1098.344800,-156.906400
360.565623,10198.916000,706.078800,156.906400
360.565929,10120.462800,1019.891600,78.453200
360.566234,10277.369200,627.625600,0.000000
360.566540,9963.556400,78.453200,0.000000
360.566845,9885.103200,-392.266000,0.000000
360.567151,9963.556400,0.000000,-235.359600
360.567457,10042.009600,156.906400,78.453200
360.567762,9885.103200,470.719200,156.906400
360.568068,10277.369200,1098.344800,156.906400
360.568373,10355.822400,1490.610800,0.000000
360.568679,10042.009600,1882.876800,392.266000
360.568985,10277.369200,627.625600,78.453200
360.569290,9963.556400,1176.798000,-627.625600
360.569596,9571.290400,313.812800,-78.453200
360.569901,9492.837200,156.906400,-313.812800
360.570207,9728.196800,1176.798000,-235.359600
360.570513,9728.196800,313.812800,0.000000
360.570818,9728.196800,78.453200,0.000000
360.571124,9728.196800,941.438400,235.359600
360.571430,9963.556400,1647.517200,235.359600
360.571735,10355.822400,1804.423600,627.625600
360.572041,10277.369200,1490.610800,235.359600
360.572346,10042.009600,1490.610800,78.453200
360.572652,10198.916000,1098.344800,0.000000
360.572958,9963.556400,392.266000,-235.359600
360.573263,10042.009600,235.359600,0.000000
360.573569,10277.369200,470.719200,235.359600
360.573874,10198.916000,627.625600,470.719200
360.574180,10120.462800,1098.344800,156.906400
360.574486,9963.556400,1333.704400,78.453200
360.574791,11061.901200,1098.344800,627.625600
360.575097,10669.635200,1569.064000,-156.906400
360.575402,9728.196800,1882.876800,-156.906400
360.575708,10120.462800,1961.330000,-156.906400
360.576014,10355.822400,1098.344800,-235.359600
360.576319,10042.009600,0.000000,549.172400
360.576625,9414.384000,549.172400,-392.266000
360.576930,9885.103200,156.906400,-313.812800
360.577236,10120.462800,392.266000,-235.359600
360.577542,9963.556400,1490.610800,235.359600
360.577847,10042.009600,1176.798000,470.719200
360.578153,10355.822400,2039.783200,235.359600
360.578459,10042.009600,1961.330000,0.000000
360.578764,10198.916000,1725.970400,-549.172400
360.579070,10355.822400,1490.610800,-313.812800
360.579375,10120.462800,313.812800,-549.172400
360.579681,10355.822400,706.078800,0.000000
360.579987,9885.103200,156.906400,0.000000
360.580292,9728.196800,0.000000,0.000000
360.580598,10042.009600,313.812800,78.453200
360.580903,9806.650000,627.625600,313.812800
360.581209,10042.009600,1098.344800,392.266000
360.581515,10120.462800,1412.157600,-235.359600
360.581820,10120.462800,1333.704400,-392.266000
360.582126,10042.009600,1412.157600,-313.812800
360.582431,10120.462800,549.172400,-392.266000
360.582737,10669.635200,78.453200,0.000000
360.583043,9963.556400,-392.266000,0.000000
360.583348,10042.009600,-235.359600,0.000000
360.583654,10434.275600,0.000000,0.000000
360.583960,10042.009600,235.359600,-156.906400
360.584265,10277.369200,784.532000,0.000000
360.584571,10434.275600,1255.251200,0.000000
360.584876,10198.916000,1019.891600,0.000000
360.585182,10512.728800,1255.251200,0.000000
360.585488,10355.822400,862.985200,0.000000
360.585793,10198.916000,0.000000,0.000000
360.586099,10277.369200,0.000000,-549.172400
360.586404,10042.009600,-313.812800,-313.812800
360.586710,10355.822400,0.000000,313.812800
360.587016,10042.009600,0.000000,-78.453200
360.587321,10120.462800,313.812800,0.000000
360.587627,9257.477600,1019.891600,0.000000
360.587932,9885.103200,392.266000,235.359600
360.588238,10042.009600,549.172400,0.000000
360.588544,10042.009600,941.438400,235.359600
360.588849,9885.103200,156.906400,0.000000
360.589155,9963.556400,0.000000,549.172400
360.589461,9649.743600,-470.719200,-156.906400
360.589766,9335.930800,-862.985200,78.453200
360.590072,9571.290400,-862.985200,235.359600
360.590377,9414.384000,-392.266000,313.812800
360.590683,9571.290400,235.359600,235.359600
360.590989,10512.728800,941.438400,78.453200
360.591294,10277.369200,941.438400,0.000000
360.591600,10198.916000,706.078800,-156.906400
360.591905,10277.369200,627.625600,-549.172400
360.592211,10120.462800,-392.266000,-706.078800
360.592517,10277.369200,-1255.251200,0.000000
360.592822,10120.462800,-1255.251200,-156.906400
360.593128,10355.822400,-1255.251200,392.266000
360.593433,9963.556400,-627.625600,78.453200
360.593739,10198.916000,0.000000,235.359600
360.594045,10042.009600,78.453200,78.453200
360.594350,10120.462800,78.453200,0.000000
360.594656,10277.369200,549.172400,-156.906400
360.594962,9728.196800,0.000000,0.000000
360.595267,9806.650000,-627.625600,-235.359600
360.595573,10042.009600,-1412.157600,0.000000
360.595878,9257.477600,-1725.970400,-235.359600
360.596184,9335.930800,-1647.517200,0.000000
360.596490,9414.384000,-1569.064000,156.906400
360.596795,9100.571200,-1333.704400,156.906400
360.597101,9963.556400,-313.812800,0.000000
360.597406,9963.556400,-706.078800,78.453200
360.597712,9806.650000,-784.532000,-235.359600
360.598018,10042.009600,-470.719200,-313.812800
360.598323,10042.009600,-941.438400,-392.266000
360.598629,10042.009600,-1412.157600,-235.359600
360.598934,9963.556400,-1333.704400,-156.906400
360.599240,10042.009600,-1804.423600,0.000000
360.599546,10355.822400,-1961.330000,0.000000
360.599851,10042.009600,-1804.423600,313.812800
360.600157,10198.916000,-1255.251200,313.812800
360.600463,10355.822400,-706.078800,549.172400
360.600768,10042.009600,-784.532000,235.359600
360.601074,10120.462800,-549.172400,0.000000
360.601379,10042.009600,-156.906400,-392.266000
360.601685,10042.009600,-941.438400,0.000000
360.601991,10042.009600,-1019.891600,-470.719200
360.602296,9728.196800,-1490.610800,-313.812800
360.602602,9806.650000,-1412.157600,0.000000
360.602907,9649.743600,-1725.970400,235.359600
360.603213,9492.837200,-1490.610800,392.266000
360.603519,9885.103200,-627.625600,156.906400
360.603824,9963.556400,-392.266000,0.000000
360.604130,10042.009600,-313.812800,-313.812800
360.604435,9806.650000,-235.359600,-78.453200
360.604741,9963.556400,-1255.251200,-784.532000
360.605047,9179.024400,-706.078800,-1176.798000
360.605352,9022.118000,-1490.610800,-78.453200
360.605658,10591.182000,-1647.517200,0.000000
360.605964,9963.556400,-1333.704400,78.453200
360.606269,9885.103200,-706.078800,313.812800
360.606575,9885.103200,0.000000,470.719200
360.606880,10120.462800,235.359600,313.812800
360.607186,10355.822400,470.719200,78.453200
360.607492,10355.822400,627.625600,0.000000
360.607797,10198.916000,706.078800,-392.266000
360.608103,10355.822400,235.359600,0.000000
360.608408,9885.103200,-706.078800,-313.812800
360.608714,9885.103200,-784.532000,-156.906400
360.609020,9885.103200,-784.532000,-392.266000
360.609325,10042.009600,-862.985200,0.000000
360.609631,9963.556400,-156.906400,549.172400
360.609936,10042.009600,470.719200,392.266000
360.610242,10042.009600,627.625600,392.266000
360.610548,10042.009600,862.985200,392.266000
360.610853,9963.556400,941.438400,235.359600
360.611159,10120.462800,313.812800,156.906400
360.611465,9885.103200,-235.359600,-235.359600
360.611770,9335.930800,-784.532000,-235.359600
360.612076,9335.930800,-1019.891600,-392.266000
360.612381,9414.384000,-784.532000,-235.359600
360.612687,9257.477600,-706.078800,0.000000
360.612993,9571.290400,-235.359600,313.812800
360.613298,9963.556400,78.453200,706.078800
360.613604,10512.728800,549.172400,784.532000
360.613909,10277.369200,784.532000,784.532000
360.614215,10512.728800,78.453200,1019.891600
360.614521,10826.541600,549.172400,0.000000
360.614826,10042.009600,-313.812800,0.000000
360.615132,9885.103200,-392.266000,-235.359600
360.615437,10120.462800,-392.266000,0.000000
360.615743,10434.275600,-1412.157600,0.000000
360.616049,10355.822400,-549.172400,-627.625600
360.616354,10277.369200,0.000000,0.000000
360.616660,10198.916000,-313.812800,0.000000
360.616966,10277.369200,627.625600,-313.812800
360.617271,10042.009600,392.266000,-313.812800
360.617577,10198.916000,1176.798000,-313.812800
360.617882,10198.916000,470.719200,-627.625600
360.618188,9963.556400,-235.359600,-549.172400
360.618494,10120.462800,-392.266000,-470.719200
360.618799,10042.009600,-1176.798000,-470.719200
360.619105,9963.556400,-1098.344800,0.000000
360.619410,9963.556400,-313.812800,0.000000
360.619716,10042.009600,-470.719200,235.359600
360.620022,9963.556400,235.359600,313.812800
360.620327,9963.556400,941.438400,0.000000
360.620633,10434.275600,706.078800,156.906400
360.620938,10277.369200,0.000000,-470.719200
360.621244,9885.103200,0.000000,-313.812800
360.621550,9963.556400,-313.812800,-235.359600
360.621855,9963.556400,-392.266000,0.000000
360.622161,10042.009600,-627.625600,-235.359600
360.622467,9963.556400,549.172400,156.906400
360.622772,9806.650000,313.812800,-78.453200
360.623078,10120.462800,784.532000,0.000000
360.623383,9414.384000,1019.891600,-470.719200
360.623689,10198.916000,0.000000,-392.266000
360.623995,10512.728800,470.719200,-549.172400
360.624300,10277.369200,392.266000,78.453200
360.624606,10042.009600,235.359600,0.000000
360.624911,10434.275600,235.359600,-235.359600
360.625217,10355.822400,78.453200,0.000000
360.625523,9963.556400,549.172400,78.453200
360.625828,9885.103200,941.438400,156.906400
360.626134,10512.728800,941.438400,235.359600
360.626439,10042.009600,1098.344800,78.453200
360.626745,10042.009600,1098.344800,78.453200
360.627051,10042.009600,1176.798000,0.000000
360.627356,9728.196800,706.078800,0.000000
360.627662,9492.837200,470.719200,-235.359600
360.627968,10042.009600,0.000000,-313.812800
360.628273,9728.196800,313.812800,-156.906400
360.628579,9414.384000,392.266000,0.000000
360.628884,10042.009600,627.625600,0.000000
360.629190,9649.743600,1176.798000,313.812800
360.629496,9963.556400,1019.891600,156.906400
360.629801,9963.556400,1490.610800,156.906400
360.630107,9885.103200,1882.876800,0.000000
360.630412,10042.009600,1961.330000,235.359600
360.630718,10120.462800,549.172400,-156.906400
360.631024,9806.650000,156.906400,-470.719200
360.631329,9728.196800,-235.359600,-470.719200
360.631635,10042.009600,-470.719200,0.000000
360.631940,9963.556400,-862.985200,0.000000
360.632246,9963.556400,313.812800,0.000000
360.632552,9963.556400,627.625600,78.453200
360.632857,10355.822400,706.078800,0.000000
360.633163,10042.009600,1019.891600,-313.812800
360.633468,10669.635200,941.438400,0.000000
360.633774,10042.009600,627.625600,-392.266000
360.634080,10277.369200,392.266000,-470.719200
360.634385,9728.196800,0.000000,-627.625600
360.634691,9728.196800,-470.719200,-392.266000
360.634997,10042.009600,-470.719200,392.266000
360.635302,9885.103200,-784.532000,0.000000
360.635608,9885.103200,-156.906400,0.000000
360.635913,10198.916000,-235.359600,313.812800
360.636219,10277.369200,0.000000,78.453200
360.636525,9963.556400,549.172400,-706.078800
360.636830,10042.009600,706.078800,-235.359600
360.637136,9963.556400,549.172400,-392.266000
360.637441,9885.103200,235.359600,-470.719200
360.637747,10198.916000,-313.812800,-313.812800
360.638053,9492.837200,-549.172400,0.000000
360.638358,9335.930800,-470.719200,156.906400
360.638664,10042.009600,-627.625600,470.719200
360.638969,10042.009600,-313.812800,627.625600
360.639275,10120.462800,0.000000,627.625600
360.639581,10120.462800,-313.812800,156.906400
360.639886,10277.369200,-470.719200,-156.906400
360.640192,10042.009600,0.000000,-313.812800
360.640498,9885.103200,-470.719200,-627.625600
360.640803,10120.462800,549.172400,-1098.344800
360.641109,9649.743600,313.812800,1176.798000
360.641414,11061.901200,0.000000,235.359600
360.641720,10120.462800,1412.157600,0.000000
360.642026,9963.556400,470.719200,706.078800
360.642331,10512.728800,313.812800,470.719200
360.642637,10042.009600,235.359600,549.172400
360.642942,9492.837200,392.266000,235.359600
360.643248,9963.556400,235.359600,0.000000
360.643554,9885.103200,235.359600,-235.359600
360.643859,9414.384000,313.812800,-156.906400
360.644165,9806.650000,0.000000,-235.359600
360.644470,10042.009600,156.906400,78.453200
360.644776,9728.196800,0.000000,235.359600
360.645082,9806.650000,235.359600,549.172400
360.645387,10042.009600,549.172400,627.625600
360.645693,9571.290400,941.438400,392.266000
360.645999,9963.556400,1019.891600,78.453200
360.646304,9806.650000,862.985200,0.000000
360.646610,9728.196800,706.078800,0.000000
360.646915,9571.290400,1019.891600,-313.812800
360.647221,9728.196800,549.172400,-313.812800
360.647527,9885.103200,235.359600,-235.359600
360.647832,9806.650000,-313.812800,156.906400
360.648138,9649.743600,0.000000,78.453200
360.648443,9806.650000,627.625600,78.453200
360.648749,10042.009600,313.812800,78.453200
360.649055,10042.009600,784.532000,156.906400
360.649360,10042.009600,1176.798000,313.812800
360.649666,10277.369200,313.812800,235.359600
360.649971,10277.369200,235.359600,235.359600
360.650277,10042.009600,0.000000,0.000000
360.650583,10277.369200,235.359600,78.453200
360.650888,9806.650000,78.453200,0.000000
360.651194,9571.290400,-313.812800,0.000000
360.651500,9571.290400,235.359600,0.000000
360.651805,9649.743600,156.906400,0.000000
360.652111,9728.196800,235.359600,-392.266000
360.652416,10042.009600,313.812800,156.906400
360.652722,9806.650000,-156.906400,156.906400
360.653028,10120.462800,-235.359600,0.000000
360.653333,10042.009600,-392.266000,0.000000
360.653639,10042.009600,-156.906400,0.000000
360.653944,10512.728800,-549.172400,0.000000
360.654250,10042.009600,-392.266000,156.906400
360.654556,9885.103200,-313.812800,0.000000
360.654861,10042.009600,-313.812800,156.906400
360.655167,9963.556400,-470.719200,156.906400
360.655472,10042.009600,313.812800,78.453200
360.655778,10198.916000,-313.812800,0.000000
360.656084,9963.556400,-549.172400,0.000000
360.656389,9885.103200,-470.719200,-313.812800
360.656695,10042.009600,-549.172400,-392.266000
360.657001,10042.009600,-706.078800,0.000000
360.657306,10198.916000,-1019.891600,-156.906400
360.657612,9885.103200,-706.078800,0.000000
360.657917,10198.916000,-706.078800,156.906400
360.658223,10512.728800,-627.625600,235.359600
360.658529,9806.650000,-941.438400,78.453200
360.658834,10277.369200,-862.985200,0.000000
360.659140,9100.571200,-78.453200,0.000000
360.659445,9728.196800,0.000000,-235.359600
360.659751,9649.743600,0.000000,-706.078800
360.660057,9335.930800,-392.266000,-313.812800
360.660362,9414.384000,-627.625600,-627.625600
360.660668,9571.290400,-941.438400,-313.812800
360.660973,9257.477600,-549.172400,-392.266000
360.661279,9728.196800,-470.719200,0.000000
360.661585,9728.196800,-627.625600,470.719200
360.661890,9492.837200,-392.266000,78.453200
360.662196,9963.556400,-313.812800,78.453200
360.662502,9728.196800,-235.359600,-156.906400
360.662807,9963.556400,-313.812800,-470.719200
360.663113,10120.462800,-470.719200,0.000000
360.663418,9728.196800,-313.812800,470.719200
360.663724,10277.369200,-706.078800,235.359600
360.664030,9963.556400,-470.719200,235.359600
360.664335,10042.009600,0.000000,313.812800
360.664641,10042.009600,78.453200,0.000000
360.664946,10120.462800,784.532000,0.000000
360.665252,10042.009600,313.812800,0.000000
360.665558,10198.916000,156.906400,-156.906400
360.665863,10277.369200,0.000000,-549.172400
360.666169,10042.009600,0.000000,-235.359600
360.666474,10591.182000,-392.266000,-549.172400
360.666780,9963.556400,-706.078800,-235.359600
360.667086,10042.009600,-784.532000,0.000000
360.667391,10198.916000,-392.266000,0.000000
360.667697,9885.103200,78.453200,0.000000
360.668003,9885.103200,-313.812800,0.000000
360.668308,10512.728800,-235.359600,392.266000
360.668614,9728.196800,156.906400,0.000000
360.668919,9806.650000,-313.812800,-313.812800
360.669225,9728.196800,-313.812800,-156.906400
360.669531,9728.196800,-706.078800,470.719200
360.669836,9885.103200,-549.172400,-156.906400
360.670142,9963.556400,-706.078800,0.000000
360.670447,9885.103200,-313.812800,156.906400
360.670753,10042.009600,78.453200,156.906400
360.671059,10355.822400,156.906400,313.812800
360.671364,10042.009600,313.812800,-313.812800
360.671670,10198.916000,470.719200,0.000000
360.671975,10198.916000,235.359600,0.000000
360.672281,10277.369200,0.000000,-156.906400
360.672587,9806.650000,-392.266000,-313.812800
360.672892,9571.290400,-235.359600,0.000000
360.673198,10042.009600,-470.719200,0.000000
360.673504,10355.822400,-941.438400,0.000000
360.673809,9963.556400,-235.359600,0.000000
360.674115,10355.822400,156.906400,0.000000
360.674420,9885.103200,549.172400,156.906400
360.674726,10198.916000,706.078800,0.000000
360.675032,10042.009600,235.359600,0.000000
360.675337,9963.556400,0.000000,0.000000
360.675643,10042.009600,0.000000,0.000000
360.675948,10042.009600,0.000000,0.000000
360.676254,9885.103200,-470.719200,0.000000
360.676560,9806.650000,-470.719200,0.000000
360.676865,9885.103200,-156.906400,549.172400
360.677171,10591.182000,78.453200,392.266000
360.677476,9885.103200,1098.344800,470.719200
360.677782,9963.556400,313.812800,0.000000
360.678088,10042.009600,862.985200,549.172400
360.678393,10042.009600,-156.906400,78.453200
360.678699,9885.103200,0.000000,0.000000
360.679005,10042.009600,0.000000,0.000000
360.679310,9963.556400,0.000000,156.906400
360.679616,9963.556400,0.000000,0.000000
360.679921,10042.009600,-392.266000,0.000000
360.680227,10042.009600,0.000000,0.000000
360.680533,10042.009600,78.453200,0.000000
360.680838,9806.650000,627.625600,156.906400
360.681144,10042.009600,627.625600,0.000000
360.681449,10277.369200,627.625600,0.000000
360.681755,9963.556400,156.906400,-235.359600
360.682061,10042.009600,156.906400,-235.359600
360.682366,10042.009600,-549.172400,0.000000
360.682672,9885.103200,-549.172400,-156.906400
360.682977,9885.103200,-392.266000,0.000000
360.683283,9885.103200,0.000000,78.453200
360.683589,9963.556400,156.906400,0.000000
360.683894,10355.822400,862.985200,-235.359600
360.684200,9963.556400,470.719200,0.000000
360.684506,10042.009600,313.812800,0.000000
360.684811,10042.009600,0.000000,78.453200
360.685117,9963.556400,-156.906400,78.453200
360.685422,9257.477600,0.000000,0.000000
360.685728,9963.556400,-156.906400,392.266000
360.686034,10042.009600,-156.906400,0.000000
360.686339,9885.103200,78.453200,156.906400
360.686645,9963.556400,549.172400,0.000000
360.686950,10277.369200,1019.891600,0.000000
360.687256,10277.369200,0.000000,0.000000
360.687562,9728.196800,313.812800,0.000000
360.687867,9885.103200,392.266000,0.000000
360.688173,10042.009600,78.453200,0.000000
360.688478,9728.196800,-313.812800,-156.906400
360.688784,9885.103200,235.359600,549.172400
360.689090,10042.009600,78.453200,313.812800
360.689395,10042.009600,156.906400,156.906400
360.689701,10042.009600,706.078800,156.906400
360.690006,9963.556400,862.985200,0.000000
360.690312,10355.822400,784.532000,235.359600
360.690618,10042.009600,1019.891600,0.000000
360.690923,9728.196800,784.532000,-235.359600
360.691229,9649.743600,78.453200,0.000000
360.691535,9963.556400,-156.906400,0.000000
360.691840,9257.477600,0.000000,235.359600
360.692146,9649.743600,-392.266000,156.906400
360.692451,9806.650000,-156.906400,0.000000
360.692757,9728.196800,78.453200,0.000000
360.693063,9963.556400,627.625600,78.453200
360.693368,10042.009600,862.985200,-313.812800
360.693674,10042.009600,235.359600,78.453200
360.693979,9728.196800,313.812800,0.000000
360.694285,10120.462800,0.000000,0.000000
360.694591,9885.103200,-235.359600,78.453200
360.694896,9649.743600,-235.359600,78.453200
360.695202,9649.743600,-1882.876800,0.000000
360.695507,9963.556400,-784.532000,-627.625600
360.695813,9179.024400,-313.812800,862.985200
360.696119,9963.556400,-627.625600,-78.453200
360.696424,10120.462800,862.985200,0.000000
360.696730,10277.369200,862.985200,78.453200
360.697036,10512.728800,784.532000,-156.906400
360.697341,10355.822400,1176.798000,-235.359600
360.697647,10355.822400,78.453200,-549.172400
360.697952,10277.369200,-313.812800,-549.172400
360.698258,10748.088400,-706.078800,-313.812800
360.698564,10120.462800,-156.906400,0.000000
360.698869,10120.462800,-313.812800,0.000000
360.699175,10120.462800,-862.985200,0.000000
360.699480,10277.369200,549.172400,0.000000
360.699786,10120.462800,941.438400,313.812800
360.700092,9728.196800,627.625600,0.000000
360.700397,10042.009600,784.532000,392.266000
360.700703,9963.556400,156.906400,313.812800
360.701008,9335.930800,156.906400,313.812800
360.701314,9806.650000,-235.359600,549.172400
360.701620,9414.384000,-392.266000,0.000000
360.701925,9335.930800,-392.266000,0.000000
360.702231,9414.384000,-862.985200,0.000000
360.702537,9335.930800,0.000000,0.000000
360.702842,9649.743600,0.000000,0.000000
360.703148,10277.369200,156.906400,0.000000
360.703453,9885.103200,313.812800,-392.266000
360.703759,10120.462800,0.000000,-156.906400
360.704065,9963.556400,0.000000,0.000000
360.704370,9885.103200,-235.359600,0.000000
360.704676,9806.650000,470.719200,-392.266000
360.704981,10120.462800,0.000000,0.000000
360.705287,10198.916000,-156.906400,78.453200
360.705593,10355.822400,0.000000,78.453200
360.705898,10434.275600,470.719200,-235.359600
360.706204,10983.448000,470.719200,470.719200
360.706509,10434.275600,627.625600,0.000000
360.706815,10355.822400,470.719200,0.000000
360.707121,10434.275600,0.000000,0.000000
360.707426,10277.369200,-470.719200,78.453200
360.707732,10120.462800,-392.266000,235.359600
360.708038,10198.916000,-313.812800,0.000000
360.708343,9885.103200,0.000000,235.359600
360.708649,9571.290400,78.453200,156.906400
360.708954,9806.650000,235.359600,0.000000
360.709260,10198.916000,313.812800,0.000000
360.709566,9492.837200,392.266000,-392.266000
360.709871,9492.837200,-156.906400,-549.172400
360.710177,9571.290400,0.000000,-156.906400
360.710482,9492.837200,-627.625600,-470.719200
360.710788,9571.290400,-941.438400,-392.266000
360.711094,9414.384000,-549.172400,0.000000
360.711399,9649.743600,-392.266000,78.453200
360.711705,9885.103200,0.000000,392.266000
360.712010,9728.196800,78.453200,156.906400
360.712316,10042.009600,470.719200,313.812800
360.712622,9963.556400,1098.344800,470.719200
360.712927,10434.275600,627.625600,-235.359600
360.713233,10591.182000,941.438400,-78.453200
360.713539,10904.994800,156.906400,0.000000
360.713844,10042.009600,-706.078800,-313.812800
360.714150,10355.822400,0.000000,-392.266000
360.714455,10277.369200,-627.625600,-470.719200
360.714761,10042.009600,-392.266000,-156.906400
360.715067,9885.103200,0.000000,313.812800
360.715372,10198.916000,470.719200,313.812800
360.715678,10591.182000,862.985200,0.000000
360.715983,9885.103200,549.172400,-156.906400
360.716289,9806.650000,470.719200,0.000000
360.716595,9963.556400,156.906400,-470.719200
360.716900,9885.103200,-706.078800,-392.266000
360.717206,10042.009600,-627.625600,0.000000
360.717511,9022.118000,-862.985200,0.000000
360.717817,9492.837200,-1019.891600,0.000000
360.718123,9728.196800,-549.172400,0.000000
360.718428,9728.196800,0.000000,78.453200
360.718734,9885.103200,706.078800,-156.906400
360.719040,10042.009600,862.985200,-235.359600
360.719345,10120.462800,549.172400,235.359600
360.719651,10198.916000,627.625600,0.000000
360.719956,10042.009600,235.359600,-392.266000
360.720262,9806.650000,-313.812800,-156.906400
360.720568,9728.196800,0.000000,-313.812800
360.720873,10042.009600,-549.172400,-470.719200
360.721179,9885.103200,-470.719200,-235.359600
360.721484,9806.650000,-313.812800,0.000000
360.721790,10042.009600,156.906400,0.000000
360.722096,10120.462800,862.985200,0.000000
360.722401,10277.369200,392.266000,0.000000
360.722707,10042.009600,784.532000,0.000000
360.723012,10198.916000,706.078800,78.453200
360.723318,9885.103200,156.906400,0.000000
360.723624,10198.916000,235.359600,0.000000
360.723929,9728.196800,-235.359600,-156.906400
360.724235,9806.650000,-392.266000,0.000000
360.724541,9885.103200,-313.812800,0.000000
360.724846,9492.837200,0.000000,0.000000
360.725152,9885.103200,470.719200,549.172400
360.725457,10277.369200,313.812800,78.453200
360.725763,10198.916000,235.359600,0.000000
360.726069,9728.196800,549.172400,78.453200
360.726374,10042.009600,549.172400,0.000000
360.726680,9728.196800,235.359600,0.000000
360.726985,9885.103200,235.359600,235.359600
360.727291,9649.743600,0.000000,0.000000
360.727597,9728.196800,-549.172400,0.000000
360.727902,9649.743600,-549.172400,0.000000
360.728208,9492.837200,-470.719200,0.000000
360.728513,9414.384000,78.453200,78.453200
360.728819,9885.103200,78.453200,0.000000
360.729125,10042.009600,941.438400,-235.359600
360.729430,10042.009600,627.625600,0.000000
360.729736,10042.009600,549.172400,0.000000
360.730042,10277.369200,549.172400,313.812800
360.730347,10042.009600,0.000000,392.266000
360.730653,9414.384000,-78.453200,0.000000
360.730958,9885.103200,-392.266000,313.812800
360.731264,9885.103200,235.359600,-549.172400
360.731570,8943.664800,706.078800,1176.798000
360.731875,10904.994800,0.000000,156.906400
360.732181,10355.822400,1176.798000,-235.359600
360.732486,9806.650000,470.719200,0.000000
360.732792,10042.009600,0.000000,-235.359600
360.733098,10198.916000,-470.719200,-470.719200
360.733403,10198.916000,-156.906400,-156.906400
360.733709,9885.103200,0.000000,0.000000
360.734014,10042.009600,-627.625600,313.812800
360.734320,10042.009600,-235.359600,313.812800
360.734626,9414.384000,392.266000,156.906400
360.734931,9963.556400,0.000000,78.453200
360.735237,10042.009600,549.172400,0.000000
360.735543,9728.196800,470.719200,0.000000
360.735848,10042.009600,156.906400,-235.359600
360.736154,10042.009600,0.000000,-313.812800
360.736459,9728.196800,78.453200,-313.812800
360.736765,9571.290400,0.000000,0.000000
360.737071,9885.103200,78.453200,235.359600
360.737376,10042.009600,78.453200,156.906400
360.737682,9649.743600,156.906400,313.812800
360.737987,10042.009600,862.985200,78.453200
360.738293,10042.009600,706.078800,0.000000
360.738599,10355.822400,706.078800,0.000000
360.738904,10042.009600,549.172400,-156.906400
360.739210,10355.822400,-470.719200,0.000000
360.739515,10042.009600,-392.266000,-1647.517200
360.739821,9492.837200,0.000000,-235.359600
360.740127,9728.196800,-235.359600,-235.359600
360.740432,10355.822400,313.812800,392.266000
360.740738,10120.462800,313.812800,392.266000
360.741044,9885.103200,1333.704400,470.719200
360.741349,10512.728800,1019.891600,156.906400
360.741655,10198.916000,706.078800,235.359600
360.741960,10042.009600,549.172400,0.000000
360.742266,9728.196800,0.000000,-313.812800
360.742572,9963.556400,-1019.891600,-627.625600
360.742877,9257.477600,-470.719200,-392.266000
360.743183,9492.837200,-1019.891600,-313.812800
360.743488,9414.384000,-706.078800,-470.719200
360.743794,9649.743600,-313.812800,-313.812800
360.744100,9571.290400,-235.359600,235.359600
360.744405,9885.103200,235.359600,-313.812800
360.744711,10042.009600,627.625600,0.000000
360.745016,10042.009600,156.906400,235.359600
360.745322,10434.275600,627.625600,235.359600
360.745628,10198.916000,0.000000,313.812800
360.745933,10277.369200,-313.812800,-549.172400
360.746239,10355.822400,0.000000,0.000000
360.746545,10198.916000,-627.625600,0.000000
360.746850,10591.182000,-392.266000,0.000000
360.747156,10591.182000,-470.719200,0.000000
360.747461,10042.009600,549.172400,0.000000
360.747767,10355.822400,549.172400,235.359600
360.748073,10277.369200,156.906400,0.000000
360.748378,10198.916000,235.359600,-156.906400
360.748684,10355.822400,313.812800,156.906400
360.748989,9649.743600,78.453200,0.000000
360.749295,9963.556400,-313.812800,0.000000
360.749601,8786.758400,-235.359600,-470.719200
360.749906,10042.009600,-1882.876800,-235.359600
360.750212,9728.196800,-941.438400,0.000000
360.750517,9022.118000,-78.453200,627.625600
360.750823,9649.743600,0.000000,313.812800
360.751129,9728.196800,0.000000,156.906400
360.751434,10198.916000,78.453200,0.000000
360.751740,9963.556400,313.812800,0.000000
360.752045,9492.837200,627.625600,-706.078800
360.752351,9963.556400,0.000000,0.000000
360.752657,9885.103200,0.000000,0.000000
360.752962,10042.009600,-235.359600,78.453200
360.753268,10120.462800,-549.172400,0.000000
360.753574,9257.477600,-549.172400,0.000000
360.753879,10042.009600,-627.625600,0.000000
360.754185,10198.916000,0.000000,78.453200
360.754490,10120.462800,0.000000,78.453200
360.754796,10042.009600,392.266000,0.000000
360.755102,10277.369200,313.812800,392.266000
360.755407,10277.369200,0.000000,78.453200
360.755713,10120.462800,156.906400,0.000000
360.756018,10042.009600,0.000000,0.000000
360.756324,10198.916000,0.000000,0.000000
360.756630,9649.743600,235.359600,235.359600
360.756935,9492.837200,-392.266000,-156.906400
360.757241,9728.196800,235.359600,0.000000
360.757546,9806.650000,235.359600,156.906400
360.757852,9885.103200,0.000000,0.000000
360.758158,10120.462800,78.453200,1019.891600
360.758463,9885.103200,0.000000,235.359600
360.758769,9728.196800,-313.812800,0.000000
360.759075,9728.196800,0.000000,-313.812800
360.759380,9885.103200,-313.812800,-235.359600
360.759686,9885.103200,-627.625600,-549.172400
360.759991,9963.556400,-1019.891600,0.000000
360.760297,9728.196800,-549.172400,78.453200
360.760603,10042.009600,0.000000,313.812800
360.760908,9728.196800,0.000000,0.000000
360.761214,10120.462800,235.359600,156.906400
360.761519,10434.275600,627.625600,0.000000
360.761825,10120.462800,-235.359600,-156.906400
360.762131,9963.556400,0.000000,-313.812800
360.762436,10198.916000,-235.359600,-392.266000
360.762742,10120.462800,-549.172400,-313.812800
360.763047,9963.556400,-313.812800,0.000000
360.763353,9571.290400,-313.812800,-156.906400
360.763659,9963.556400,0.000000,0.000000
360.763964,10042.009600,0.000000,0.000000
360.764270,9885.103200,0.000000,0.000000
360.764576,10042.009600,706.078800,0.000000
360.764881,9414.384000,0.000000,0.000000
360.765187,9963.556400,-313.812800,-313.812800
360.765492,9728.196800,-235.359600,-313.812800
360.765798,9963.556400,-392.266000,0.000000
360.766104,9885.103200,-392.266000,313.812800
360.766409,9885.103200,-235.359600,78.453200
360.766715,9963.556400,-784.532000,235.359600
360.767020,9728.196800,0.000000,627.625600
360.767326,9492.837200,156.906400,1490.610800
360.767632,11218.807600,0.000000,392.266000
360.767937,10669.635200,1098.344800,0.000000
360.768243,10042.009600,-392.266000,0.000000
360.768548,10042.009600,0.000000,235.359600
360.768854,9885.103200,0.000000,-235.359600
360.769160,10042.009600,0.000000,0.000000
360.769465,9806.650000,-313.812800,-78.453200
360.769771,10042.009600,-392.266000,0.000000
360.770077,9806.650000,156.906400,156.906400
360.770382,9806.650000,78.453200,313.812800
360.770688,10120.462800,156.906400,78.453200
360.770993,10120.462800,156.906400,784.532000
360.771299,10355.822400,-156.906400,0.000000
360.771605,10198.916000,0.000000,0.000000
360.771910,9806.650000,78.453200,0.000000
360.772216,10198.916000,0.000000,0.000000
360.772521,10198.916000,470.719200,78.453200
360.772827,10042.009600,-235.359600,0.000000
360.773133,10042.009600,78.453200,0.000000
360.773438,9885.103200,156.906400,313.812800
360.773744,9728.196800,0.000000,156.906400
360.774049,9492.837200,549.172400,313.812800
360.774355,10042.009600,627.625600,235.359600
360.774661,10042.009600,156.906400,0.000000
360.774966,9728.196800,392.266000,-313.812800
360.775272,9728.196800,78.453200,-313.812800
360.775578,9885.103200,235.359600,-313.812800
360.775883,9571.290400,0.000000,0.000000
360.776189,9728.196800,0.000000,-235.359600
360.776494,9728.196800,313.812800,0.000000
360.776800,9728.196800,0.000000,313.812800
360.777106,9649.743600,78.453200,235.359600
360.777411,9885.103200,627.625600,941.438400
360.777717,10198.916000,78.453200,0.000000
360.778022,9885.103200,470.719200,-392.266000
360.778328,9963.556400,313.812800,-627.625600
360.778634,9806.650000,0.000000,-784.532000
360.778939,9963.556400,-470.719200,-784.532000
360.779245,10042.009600,-862.985200,-313.812800
360.779550,10042.009600,-470.719200,313.812800
360.779856,10042.009600,156.906400,549.172400
360.780162,10355.822400,0.000000,78.453200
360.780467,10434.275600,627.625600,0.000000
360.780773,9963.556400,1490.610800,0.000000
360.781079,10120.462800,0.000000,-392.266000
360.781384,10277.369200,-392.266000,-392.266000
360.781690,10042.009600,-470.719200,-549.172400
360.781995,9806.650000,-706.078800,-470.719200
360.782301,10042.009600,-392.266000,235.359600
360.782607,9963.556400,-1019.891600,0.000000
360.782912,9885.103200,0.000000,0.000000
360.783218,9728.196800,78.453200,0.000000
360.783523,9963.556400,313.812800,-235.359600
360.783829,10198.916000,1176.798000,0.000000
360.784135,10042.009600,470.719200,0.000000
360.784440,10042.009600,78.453200,0.000000
360.784746,10277.369200,0.000000,-78.453200
360.785051,10355.822400,-235.359600,-470.719200
360.785357,10042.009600,-470.719200,0.000000
360.785663,10042.009600,0.000000,-235.359600
360.785968,9963.556400,0.000000,0.000000
360.786274,9963.556400,549.172400,549.172400
360.786580,10591.182000,0.000000,0.000000
360.786885,10042.009600,627.625600,784.532000
360.787191,10277.369200,627.625600,235.359600
360.787496,9806.650000,392.266000,0.000000
360.787802,10042.009600,862.985200,-235.359600
360.788108,10120.462800,313.812800,-392.266000
360.788413,9728.196800,0.000000,-313.812800
360.788719,10198.916000,313.812800,-313.812800
360.789024,9963.556400,-313.812800,78.453200
360.789330,9649.743600,235.359600,0.000000
360.789636,9885.103200,0.000000,235.359600
360.789941,9414.384000,392.266000,78.453200
360.790247,9806.650000,1412.157600,470.719200
360.790552,9963.556400,470.719200,0.000000
360.790858,9806.650000,627.625600,0.000000
360.791164,9885.103200,549.172400,156.906400
360.791469,9728.196800,-156.906400,0.000000
360.791775,9571.290400,0.000000,-235.359600
360.792081,9022.118000,0.000000,0.000000
360.792386,9963.556400,-156.906400,0.000000
360.792692,10277.369200,0.000000,0.000000
360.792997,9649.743600,0.000000,235.359600
360.793303,10198.916000,470.719200,784.532000
360.793609,10198.916000,470.719200,0.000000
360.793914,10042.009600,0.000000,0.000000
360.794220,10120.462800,235.359600,-156.906400
360.794525,10042.009600,235.359600,-235.359600
360.794831,9885.103200,-156.906400,-941.438400
360.795137,9963.556400,-392.266000,0.000000
360.795442,10042.009600,-627.625600,0.000000
360.795748,10042.009600,-392.266000,156.906400
360.796053,9963.556400,0.000000,0.000000
360.796359,10120.462800,470.719200,470.719200
360.796665,9649.743600,784.532000,0.000000
360.796970,10042.009600,78.453200,-313.812800
360.797276,10120.462800,-156.906400,-235.359600
360.797582,9963.556400,0.000000,-156.906400
360.797887,10042.009600,-470.719200,0.000000
360.798193,10355.822400,-392.266000,-392.266000
360.798498,10042.009600,-627.625600,78.453200
360.798804,9728.196800,-235.359600,78.453200
360.799110,10042.009600,0.000000,313.812800
360.799415,10042.009600,-235.359600,313.812800
360.799721,9885.103200,156.906400,549.172400
360.800026,10198.916000,0.000000,156.906400
360.800332,10042.009600,-156.906400,0.000000
360.800638,10042.009600,78.453200,0.000000
360.800943,10042.009600,0.000000,-313.812800
360.801249,10591.182000,0.000000,156.906400
360.801554,10042.009600,0.000000,0.000000
360.801860,10042.009600,0.000000,156.906400
360.802166,10042.009600,392.266000,0.000000
360.802471,10042.009600,470.719200,156.906400
360.802777,9963.556400,2432.049200,156.906400
360.803083,9963.556400,941.438400,392.266000
360.803388,11140.354400,235.359600,313.812800
360.803694,10277.369200,627.625600,-78.453200
360.803999,10120.462800,78.453200,0.000000
360.804305,9414.384000,-862.985200,0.000000
360.804611,9571.290400,0.000000,-235.359600
360.804916,9649.743600,-470.719200,-156.906400
360.805222,9649.743600,156.906400,0.000000
360.805527,9728.196800,627.625600,156.906400
360.805833,9649.743600,392.266000,0.000000
360.806139,9728.196800,1255.251200,0.000000
360.806444,9963.556400,627.625600,78.453200
360.806750,9963.556400,0.000000,0.000000
360.807055,10042.009600,-313.812800,156.906400
360.807361,9885.103200,-156.906400,235.359600
360.807667,10355.822400,0.000000,235.359600
360.807972,10042.009600,-313.812800,0.000000
360.808278,10120.462800,0.000000,156.906400
360.808583,9963.556400,470.719200,0.000000
360.808889,9885.103200,470.719200,0.000000
360.809195,10512.728800,549.172400,235.359600
360.809500,10355.822400,549.172400,78.453200
360.809806,9728.196800,78.453200,78.453200
360.810112,9963.556400,0.000000,78.453200
360.810417,9806.650000,0.000000,0.000000
360.810723,10042.009600,0.000000,-235.359600
360.811028,10042.009600,-235.359600,-392.266000
360.811334,10042.009600,0.000000,-235.359600
360.811640,10042.009600,0.000000,156.906400
360.811945,10042.009600,156.906400,235.359600
360.812251,10042.009600,470.719200,706.078800
360.812556,9963.556400,0.000000,313.812800
360.812862,9885.103200,-313.812800,0.000000
360.813168,9728.196800,0.000000,235.359600
360.813473,10042.009600,-392.266000,0.000000
360.813779,10042.009600,0.000000,-235.359600
360.814084,10355.822400,-392.266000,156.906400
360.814390,9963.556400,-392.266000,-313.812800
360.814696,10120.462800,0.000000,0.000000
360.815001,10120.462800,0.000000,235.359600
360.815307,9963.556400,78.453200,392.266000
360.815613,10120.462800,156.906400,156.906400
360.815918,10042.009600,-156.906400,0.000000
360.816224,10042.009600,-313.812800,0.000000
360.816529,9963.556400,0.000000,-156.906400
360.816835,10198.916000,78.453200,0.000000
360.817141,10512.728800,78.453200,0.000000
360.817446,10042.009600,-235.359600,0.000000
360.817752,10198.916000,0.000000,78.453200
360.818057,9963.556400,156.906400,0.000000
360.818363,9885.103200,0.000000,-156.906400
360.818669,10198.916000,0.000000,78.453200
360.818974,10120.462800,470.719200,-235.359600
360.819280,9885.103200,235.359600,-156.906400
360.819585,9885.103200,0.000000,78.453200
360.819891,9963.556400,0.000000,235.359600
360.820197,9963.556400,313.812800,0.000000
360.820502,9571.290400,78.453200,156.906400
360.820808,9963.556400,0.000000,0.000000
360.821114,9257.477600,235.359600,-235.359600
360.821419,9728.196800,0.000000,-78.453200
360.821725,9806.650000,235.359600,-313.812800
360.822030,8943.664800,313.812800,1176.798000
360.822336,10042.009600,470.719200,627.625600
360.822642,10120.462800,1176.798000,-78.453200
360.822947,9885.103200,78.453200,0.000000
360.823253,10120.462800,470.719200,0.000000
360.823558,10512.728800,0.000000,156.906400
360.823864,9806.650000,78.453200,0.000000
360.824170,9885.103200,0.000000,0.000000
360.824475,10042.009600,0.000000,0.000000
360.824781,9649.743600,0.000000,0.000000
360.825086,10120.462800,0.000000,235.359600
360.825392,9728.196800,235.359600,-235.359600
360.825698,9885.103200,-235.359600,-156.906400
360.826003,9885.103200,78.453200,0.000000
360.826309,9806.650000,156.906400,-156.906400
360.826615,10512.728800,78.453200,-470.719200
360.826920,9885.103200,313.812800,0.000000
360.827226,10042.009600,-156.906400,0.000000
360.827531,9963.556400,-392.266000,0.000000
360.827837,10042.009600,470.719200,0.000000
360.828143,9885.103200,313.812800,0.000000
360.828448,10198.916000,0.000000,156.906400
360.828754,10198.916000,-470.719200,0.000000
360.829059,9649.743600,-470.719200,-313.812800
360.829365,9649.743600,0.000000,0.000000
360.829671,10042.009600,0.000000,0.000000
360.829976,10277.369200,0.000000,0.000000
360.830282,10042.009600,-313.812800,0.000000
360.830587,10042.009600,-706.078800,0.000000
360.830893,9885.103200,78.453200,235.359600
360.831199,10042.009600,0.000000,0.000000
360.831504,10355.822400,0.000000,78.453200
360.831810,10042.009600,0.000000,156.906400
360.832116,9885.103200,-470.719200,0.000000
360.832421,9963.556400,-549.172400,-392.266000
360.832727,9728.196800,-392.266000,-313.812800
360.833032,9257.477600,0.000000,0.000000
360.833338,10277.369200,-784.532000,-156.906400
360.833644,10120.462800,-549.172400,0.000000
360.833949,9963.556400,0.000000,313.812800
360.834255,10042.009600,549.172400,0.000000
360.834560,9649.743600,313.812800,78.453200
360.834866,9728.196800,78.453200,235.359600
360.835172,10042.009600,0.000000,313.812800
360.835477,10042.009600,-470.719200,0.000000
360.835783,9806.650000,-549.172400,0.000000
360.836088,10042.009600,-313.812800,0.000000
360.836394,9806.650000,-862.985200,-156.906400
360.836700,9885.103200,-1019.891600,0.000000
360.837005,9649.743600,-784.532000,0.000000
360.837311,9728.196800,78.453200,0.000000
360.837617,9885.103200,78.453200,0.000000
360.837922,9885.103200,156.906400,0.000000
360.838228,10198.916000,392.266000,78.453200
360.838533,9885.103200,0.000000,0.000000
360.838839,10120.462800,0.000000,0.000000
360.839145,10198.916000,-706.078800,313.812800
360.839450,10198.916000,0.000000,-78.453200
360.839756,10277.369200,-392.266000,0.000000
360.840061,9414.384000,156.906400,-392.266000
360.840367,9885.103200,0.000000,-313.812800
360.840673,10042.009600,156.906400,0.000000
360.840978,10355.822400,470.719200,-392.266000
360.841284,9963.556400,313.812800,-156.906400
360.841589,10042.009600,78.453200,0.000000
360.841895,10042.009600,-235.359600,0.000000
360.842201,9963.556400,0.000000,-235.359600
360.842506,9571.290400,235.359600,235.359600
360.842812,10042.009600,-235.359600,0.000000
360.843118,9963.556400,0.000000,0.000000
360.843423,10277.369200,0.000000,78.453200
360.843729,10120.462800,156.906400,78.453200
360.844034,9963.556400,235.359600,0.000000
360.844340,10198.916000,235.359600,-156.906400
360.844646,9806.650000,627.625600,0.000000
360.844951,9728.196800,-156.906400,0.000000
360.845257,9806.650000,-313.812800,0.000000
360.845562,9885.103200,0.000000,0.000000
360.845868,9963.556400,-706.078800,0.000000
360.846174,9963.556400,-313.812800,156.906400
360.846479,10042.009600,156.906400,235.359600
360.846785,9963.556400,0.000000,0.000000
360.847090,10198.916000,392.266000,0.000000
360.847396,9885.103200,0.000000,0.000000
360.847702,9806.650000,0.000000,0.000000
360.848007,10042.009600,0.000000,-78.453200
360.848313,9649.743600,-549.172400,156.906400
360.848619,9963.556400,-549.172400,0.000000
360.848924,10277.369200,0.000000,0.000000
360.849230,10042.009600,-235.359600,0.000000
360.849535,9885.103200,0.000000,0.000000
360.849841,9885.103200,156.906400,0.000000
360.850147,10042.009600,392.266000,0.000000
360.850452,9806.650000,1490.610800,156.906400
360.850758,10198.916000,549.172400,0.000000
360.851063,10042.009600,235.359600,0.000000
360.851369,9963.556400,-235.359600,0.000000
360.851675,9571.290400,-313.812800,-313.812800
360.851980,9649.743600,0.000000,470.719200
360.852286,9728.196800,-235.359600,235.359600
360.852591,9963.556400,78.453200,78.453200
360.852897,9963.556400,470.719200,78.453200
360.853203,10042.009600,549.172400,0.000000
360.853508,10120.462800,1098.344800,0.000000
360.853814,10512.728800,313.812800,0.000000
360.854120,10120.462800,235.359600,0.000000
360.854425,10120.462800,78.453200,-470.719200
360.854731,9806.650000,0.000000,0.000000
360.855036,9728.196800,0.000000,0.000000
360.855342,10198.916000,-549.172400,0.000000
360.855648,10042.009600,0.000000,0.000000
360.855953,9728.196800,235.359600,0.000000
360.856259,9806.650000,549.172400,0.000000
360.856564,10042.009600,1098.344800,0.000000
360.856870,9649.743600,1019.891600,-78.453200
360.857176,10277.369200,0.000000,-235.359600
360.857481,9885.103200,1176.798000,0.000000
360.857787,9492.837200,0.000000,1176.798000
360.858092,10512.728800,-862.985200,313.812800
360.858398,10120.462800,78.453200,549.172400
360.858704,9492.837200,0.000000,0.000000
360.859009,9728.196800,78.453200,78.453200
360.859315,9885.103200,313.812800,78.453200
360.859621,10042.009600,470.719200,0.000000
360.859926,10198.916000,941.438400,392.266000
360.860232,10042.009600,235.359600,313.812800
360.860537,9885.103200,235.359600,0.000000
360.860843,10042.009600,235.359600,0.000000
360.861149,9806.650000,-156.906400,-313.812800
360.861454,9728.196800,156.906400,-156.906400
360.861760,9963.556400,-313.812800,0.000000
360.862065,10042.009600,-549.172400,0.000000
360.862371,10277.369200,0.000000,78.453200
360.862677,9963.556400,470.719200,0.000000
360.862982,10355.822400,941.438400,156.906400
360.863288,10512.728800,1176.798000,156.906400
360.863593,10277.369200,549.172400,-156.906400
360.863899,10277.369200,78.453200,-549.172400
360.864205,9885.103200,-235.359600,-313.812800
360.864510,9885.103200,-470.719200,-313.812800
360.864816,9963.556400,-392.266000,-784.532000
360.865121,10042.009600,-706.078800,0.000000
360.865427,9963.556400,-235.359600,0.000000
360.865733,10198.916000,470.719200,78.453200
360.866038,10120.462800,706.078800,0.000000
360.866344,10512.728800,1569.064000,156.906400
360.866650,10042.009600,784.532000,235.359600
360.866955,10355.822400,549.172400,235.359600
360.867261,10042.009600,-392.266000,235.359600
360.867566,9414.384000,-627.625600,0.000000
360.867872,9414.384000,0.000000,-627.625600
360.868178,9492.837200,-627.625600,-313.812800
360.868483,9728.196800,0.000000,0.000000
360.868789,10042.009600,235.359600,-156.906400
360.869094,10198.916000,235.359600,156.906400
360.869400,9885.103200,1019.891600,156.906400
360.869706,9963.556400,862.985200,0.000000
360.870011,10042.009600,941.438400,78.453200
360.870317,9963.556400,627.625600,0.000000
360.870622,9571.290400,-156.906400,0.000000
360.870928,9728.196800,-313.812800,0.000000
360.871234,9885.103200,-862.985200,-549.172400
360.871539,9649.743600,-706.078800,0.000000
360.871845,9885.103200,-470.719200,235.359600
360.872151,9571.290400,-235.359600,156.906400
360.872456,10042.009600,706.078800,78.453200
360.872762,10826.541600,941.438400,156.906400
360.873067,10042.009600,784.532000,0.000000
360.873373,10042.009600,862.985200,0.000000
360.873679,10120.462800,235.359600,-156.906400
360.873984,9885.103200,-313.812800,0.000000
360.874290,9728.196800,-549.172400,156.906400
360.874595,9806.650000,-862.985200,0.000000
360.874901,10042.009600,-706.078800,156.906400
360.875207,10042.009600,-1255.251200,156.906400
360.875512,10277.369200,-156.906400,0.000000
360.875818,9179.024400,706.078800,-784.532000
360.876123,10434.275600,0.000000,-313.812800
360.876429,10277.369200,392.266000,-313.812800
360.876735,10277.369200,549.172400,-78.453200
360.877040,9963.556400,0.000000,-627.625600
360.877346,9728.196800,-392.266000,-156.906400
360.877652,9649.743600,-1019.891600,-470.719200
360.877957,9728.196800,-1019.891600,0.000000
360.878263,10042.009600,-862.985200,156.906400
360.878568,9806.650000,-392.266000,0.000000
360.878874,9806.650000,0.000000,0.000000
360.879180,10669.635200,392.266000,392.266000
360.879485,10669.635200,0.000000,0.000000
360.879791,10277.369200,0.000000,0.000000
360.880096,10434.275600,-862.985200,0.000000
360.880402,10042.009600,-1725.970400,-235.359600
360.880708,9649.743600,-2588.955600,-392.266000
360.881013,9728.196800,-2981.221600,-156.906400
360.881319,9806.650000,-3216.581200,0.000000
360.881624,10042.009600,-3138.128000,0.000000
360.881930,9885.103200,-2667.408800,235.359600
360.882236,10042.009600,-2118.236400,235.359600
360.882541,10277.369200,-1961.330000,313.812800
360.882847,10591.182000,-1569.064000,313.812800
360.883153,10512.728800,-1882.876800,0.000000
360.883458,10355.822400,-2353.596000,-235.359600
360.883764,10042.009600,-3138.128000,-784.532000
360.884069,9806.650000,-4314.926000,-1176.798000
360.884375,9414.384000,-5334.817600,-1098.344800
360.884681,9257.477600,-6119.349600,-706.078800
360.884986,9335.930800,-6746.975200,-549.172400
360.885292,9649.743600,-6040.896400,0.000000
360.885597,10277.369200,-5413.270800,78.453200
360.885903,10198.916000,-4942.551600,0.000000
360.886209,10748.088400,-4001.113200,0.000000
360.886514,10277.369200,-4079.566400,-392.266000
360.886820,10277.369200,-4785.645200,-313.812800
360.887125,9571.290400,-5021.004800,-156.906400
360.887431,9571.290400,-6982.334800,-235.359600
360.887737,9414.384000,-7845.320000,-549.172400
360.888042,9492.837200,-8786.758400,-706.078800
360.888348,9414.384000,-8943.664800,-549.172400
360.888654,9649.743600,-8316.039200,-784.532000
360.888959,9414.384000,-7531.507200,-1019.891600
360.889265,9963.556400,-7374.600800,-470.719200
360.889570,10434.275600,-6903.881600,-392.266000
360.889876,10434.275600,-7217.694400,-627.625600
360.890182,10277.369200,-7531.507200,-941.438400
360.890487,10042.009600,-7688.413600,-1333.704400
360.890793,9335.930800,-8629.852000,-1019.891600
360.891098,9414.384000,-9963.556400,-941.438400
360.891404,9179.024400,-10748.088400,-784.532000
360.891710,9414.384000,-10983.448000,-941.438400
360.892015,9806.650000,-10355.822400,-706.078800
360.892321,9571.290400,-9649.743600,-862.985200
360.892626,10042.009600,-8865.211600,-784.532000
360.892932,10904.994800,-8551.398800,-706.078800
360.893238,9963.556400,-7453.054000,-1098.344800
360.893543,9806.650000,-8551.398800,-313.812800
360.893849,10042.009600,-8943.664800,-470.719200
360.894155,9885.103200,-9728.196800,-392.266000
360.894460,9649.743600,-9806.650000,-1019.891600
360.894766,9179.024400,-10591.182000,-941.438400
360.895071,9100.571200,-9963.556400,-706.078800
360.895377,8943.664800,-9571.290400,-1098.344800
360.895683,9179.024400,-9335.930800,-1019.891600
360.895988,9335.930800,-8551.398800,-706.078800
360.896294,9571.290400,-8080.679600,-313.812800
360.896599,9649.743600,-7531.507200,235.359600
360.896905,9963.556400,-7923.773200,-235.359600
360.897211,10198.916000,-7296.147600,0.000000
360.897516,10042.009600,-7453.054000,235.359600
360.897822,9728.196800,-7531.507200,78.453200
360.898127,9414.384000,-7374.600800,0.000000
360.898433,10591.182000,-7531.507200,0.000000
360.898739,9806.650000,-7609.960400,0.000000
360.899044,9179.024400,-7060.788000,0.000000
360.899350,9492.837200,-6433.162400,0.000000
360.899656,9963.556400,-6511.615600,156.906400
360.899961,10748.088400,-5491.724000,862.985200
360.900267,10198.916000,-5413.270800,392.266000
360.900572,9571.290400,-4785.645200,549.172400
360.900878,9806.650000,-4550.285600,78.453200
360.901184,9728.196800,-4471.832400,392.266000
360.901489,10355.822400,-4707.192000,784.532000
360.901795,9885.103200,-4471.832400,627.625600
360.902100,9728.196800,-4158.019600,862.985200
360.902406,9963.556400,-3844.206800,627.625600
360.902712,10042.009600,-3295.034400,549.172400
360.903017,10355.822400,-3216.581200,235.359600
360.903323,9885.103200,-2824.315200,627.625600
360.903628,10042.009600,-2510.502400,784.532000
360.903934,9885.103200,-2510.502400,784.532000
360.904240,9728.196800,-1961.330000,862.985200
360.904545,9806.650000,-2118.236400,1333.704400
360.904851,9728.196800,-1647.517200,784.532000
360.905157,9885.103200,-1725.970400,862.985200
360.905462,10042.009600,-1647.517200,941.438400
360.905768,10042.009600,-1255.251200,941.438400
360.906073,10355.822400,-941.438400,1333.704400
360.906379,10277.369200,-784.532000,706.078800
360.906685,10355.822400,0.000000,784.532000
360.906990,10042.009600,78.453200,706.078800
360.907296,10355.822400,470.719200,706.078800
360.907601,10355.822400,941.438400,627.625600
360.907907,9963.556400,627.625600,313.812800
360.908213,10042.009600,313.812800,156.906400
360.908518,9806.650000,784.532000,235.359600
360.908824,9728.196800,1176.798000,0.000000
360.909129,9885.103200,1882.876800,0.000000
360.909435,10042.009600,2118.236400,-235.359600
360.909741,9963.556400,2432.049200,-156.906400
360.910046,10042.009600,2667.408800,-235.359600
360.910352,10277.369200,2667.408800,-627.625600
360.910658,10120.462800,2902.768400,-549.172400
360.910963,10277.369200,2510.502400,-941.438400
360.911269,10042.009600,3530.394000,-627.625600
360.911574,9414.384000,3138.128000,-78.453200
360.911880,10277.369200,2667.408800,-470.719200
360.912186,10120.462800,4314.926000,-706.078800
360.912491,10042.009600,3922.660000,392.266000
360.912797,10512.728800,4314.926000,0.000000
360.913102,10355.822400,4001.113200,-235.359600
360.913408,10120.462800,4314.926000,0.000000
360.913714,10042.009600,4550.285600,0.000000
360.914019,11218.807600,4707.192000,0.000000
360.914325,9492.837200,4628.738800,0.000000
360.914630,9885.103200,4942.551600,-156.906400
360.914936,10591.182000,5491.724000,78.453200
360.915242,9728.196800,5021.004800,-156.906400
360.915547,9728.196800,5256.364400,-862.985200
360.915853,10434.275600,5021.004800,235.359600
360.916159,9963.556400,4393.379200,-156.906400
360.916464,10277.369200,5256.364400,0.000000
360.916770,10277.369200,5648.630400,0.000000
360.917075,10277.369200,5021.004800,0.000000
360.917381,10042.009600,4707.192000,0.000000
360.917687,10512.728800,5099.458000,0.000000
360.917992,10198.916000,5413.270800,-313.812800
360.918298,10355.822400,5256.364400,-706.078800
360.918603,10042.009600,5177.911200,-627.625600
360.918909,10042.009600,5021.004800,-1019.891600
360.919215,9806.650000,4864.098400,-784.532000
360.919520,10198.916000,5021.004800,-549.172400
360.919826,10355.822400,4471.832400,-470.719200
360.920131,10277.369200,4314.926000,-706.078800
360.920437,10120.462800,4314.926000,-392.266000
360.920743,10120.462800,3608.847200,-235.359600
360.921048,10434.275600,3687.300400,0.000000
360.921354,10434.275600,3608.847200,0.000000
360.921659,10198.916000,3922.660000,0.000000
360.921965,10669.635200,3373.487600,392.266000
360.922271,10355.822400,3451.940800,78.453200
360.922576,10277.369200,3530.394000,156.906400
360.922882,10904.994800,2667.408800,156.906400
360.923188,10983.448000,3059.674800,78.453200
360.923493,9963.556400,2510.502400,235.359600
360.923799,9963.556400,2824.315200,78.453200
360.924104,11297.260800,1882.876800,0.000000
360.924410,9728.196800,2275.142800,-392.266000
360.924716,9649.743600,2510.502400,-156.906400
360.925021,10591.182000,2432.049200,313.812800
360.925327,10120.462800,1647.517200,-156.906400
360.925632,9806.650000,1647.517200,78.453200
360.925938,10277.369200,1333.704400,0.000000
360.926244,10042.009600,1333.704400,0.000000
360.926549,9885.103200,1569.064000,313.812800
360.926855,10120.462800,1176.798000,0.000000
360.927160,9885.103200,1019.891600,0.000000
360.927466,10042.009600,706.078800,156.906400
360.927772,10120.462800,706.078800,0.000000
360.928077,10434.275600,470.719200,0.000000
360.928383,10042.009600,235.359600,0.000000
360.928689,10042.009600,0.000000,235.359600
360.928994,10277.369200,156.906400,235.359600
360.929300,9885.103200,-156.906400,0.000000
360.929605,10042.009600,-156.906400,156.906400
360.929911,10120.462800,-1255.251200,-78.453200
360.930217,9885.103200,-627.625600,0.000000
360.930522,9100.571200,-549.172400,0.000000
360.930828,10042.009600,-1255.251200,0.000000
360.931133,10042.009600,-313.812800,235.359600
360.931439,10277.369200,-1176.798000,0.000000
360.931745,10042.009600,-1019.891600,-156.906400
360.932050,9963.556400,-1569.064000,0.000000
360.932356,9806.650000,-1412.157600,0.000000
360.932661,9806.650000,-1569.064000,0.000000
360.932967,9414.384000,-2039.783200,-235.359600
360.933273,9806.650000,-1804.423600,-470.719200
360.933578,9806.650000,-1569.064000,-313.812800
360.933884,9728.196800,-1882.876800,0.000000
360.934190,9806.650000,-2118.236400,-156.906400
360.934495,9963.556400,-1725.970400,0.000000
360.934801,10042.009600,-2196.689600,-156.906400
360.935106,9963.556400,-2039.783200,-313.812800
360.935412,9963.556400,-2118.236400,0.000000
360.935718,10120.462800,-2275.142800,-313.812800
360.936023,10355.822400,-2196.689600,-235.359600
360.936329,9728.196800,-2118.236400,-235.359600
360.936634,9885.103200,-2432.049200,0.000000
360.936940,9885.103200,-2667.408800,-156.906400
360.937246,9649.743600,-2432.049200,0.000000
360.937551,10042.009600,-2039.783200,-1019.891600
360.937857,9728.196800,-2039.783200,-235.359600
360.938162,9885.103200,-2432.049200,0.000000
360.938468,9963.556400,-2039.783200,0.000000
360.938774,9963.556400,-2196.689600,0.000000
360.939079,9806.650000,-2196.689600,156.906400
360.939385,9963.556400,-1961.330000,235.359600
360.939691,9728.196800,-2196.689600,0.000000
360.939996,9806.650000,-2275.142800,0.000000
360.940302,9649.743600,-2118.236400,0.000000
360.940607,9649.743600,-1961.330000,78.453200
360.940913,9728.196800,-2118.236400,156.906400
360.941219,9571.290400,-1882.876800,0.000000
360.941524,10355.822400,-1333.704400,235.359600
360.941830,9414.384000,-1647.517200,156.906400
360.942135,9806.650000,-1882.876800,549.172400
360.942441,10042.009600,-1490.610800,862.985200
360.942747,9492.837200,-1569.064000,313.812800
360.943052,9806.650000,-1333.704400,392.266000
360.943358,9806.650000,-1019.891600,313.812800
360.943663,9963.556400,-1255.251200,549.172400
360.943969,10042.009600,-862.985200,470.719200
360.944275,9728.196800,-1019.891600,392.266000
360.944580,9571.290400,-706.078800,392.266000
360.944886,9571.290400,-627.625600,156.906400
360.945192,9728.196800,-784.532000,392.266000
360.945497,9492.837200,-156.906400,235.359600
360.945803,9414.384000,-392.266000,0.000000
360.946108,9649.743600,-392.266000,313.812800
360.946414,9571.290400,-627.625600,156.906400
360.946720,9728.196800,-392.266000,0.000000
360.947025,9649.743600,-78.453200,78.453200
360.947331,9728.196800,0.000000,1176.798000
360.947636,10591.182000,-706.078800,470.719200
360.947942,9885.103200,1019.891600,-78.453200
360.948248,9649.743600,-156.906400,313.812800
360.948553,10042.009600,235.359600,470.719200
360.948859,10042.009600,235.359600,235.359600
360.949164,9492.837200,235.359600,235.359600
360.949470,9728.196800,313.812800,78.453200
360.949776,9649.743600,313.812800,0.000000
360.950081,9649.743600,470.719200,78.453200
360.950387,9885.103200,784.532000,156.906400
360.950693,9806.650000,706.078800,0.000000
360.950998,9728.196800,784.532000,0.000000
360.951304,9649.743600,706.078800,0.000000
360.951609,9885.103200,784.532000,0.000000
360.951915,9963.556400,706.078800,-313.812800
360.952221,9963.556400,784.532000,0.000000
360.952526,9885.103200,941.438400,0.000000
360.952832,9806.650000,1019.891600,0.000000
360.953137,9963.556400,941.438400,-235.359600
360.953443,10198.916000,1333.704400,-235.359600
360.953749,9963.556400,1176.798000,0.000000
360.954054,9963.556400,1098.344800,0.000000
360.954360,9963.556400,1176.798000,0.000000
360.954665,9885.103200,1176.798000,0.000000
360.954971,9492.837200,1569.064000,470.719200
360.955277,10042.009600,1490.610800,78.453200
360.955582,10042.009600,1412.157600,-156.906400
360.955888,9963.556400,1490.610800,0.000000
360.956194,9963.556400,1569.064000,0.000000
360.956499,10042.009600,1882.876800,78.453200
360.956805,9885.103200,1569.064000,0.000000
360.957110,10042.009600,1569.064000,0.000000
360.957416,9963.556400,1804.423600,0.000000
360.957722,10042.009600,1804.423600,0.000000
360.958027,10042.009600,1725.970400,156.906400
360.958333,10042.009600,1569.064000,-313.812800
360.958638,10042.009600,1725.970400,0.000000
360.958944,10042.009600,1882.876800,0.000000
360.959250,10198.916000,1804.423600,0.000000
360.959555,10042.009600,1725.970400,-313.812800
360.959861,10042.009600,2118.236400,-470.719200
360.960166,10042.009600,1882.876800,0.000000
360.960472,10042.009600,1725.970400,-156.906400
360.960778,10120.462800,1569.064000,0.000000
360.961083,10198.916000,1569.064000,-156.906400
360.961389,10042.009600,1569.064000,-235.359600
360.961695,10512.728800,1569.064000,0.000000
360.962000,10042.009600,1569.064000,-313.812800
360.962306,10042.009600,1490.610800,-235.359600
360.962611,10120.462800,1490.610800,-313.812800
360.962917,9963.556400,1490.610800,-235.359600
360.963223,10434.275600,1333.704400,78.453200
360.963528,9885.103200,1255.251200,-313.812800
360.963834,9963.556400,1333.704400,0.000000
360.964139,10277.369200,1255.251200,0.000000
360.964445,10120.462800,784.532000,0.000000
360.964751,10198.916000,941.438400,0.000000
360.965056,10512.728800,1019.891600,-1176.798000
360.965362,10042.009600,470.719200,0.000000
360.965667,10277.369200,627.625600,-392.266000
360.965973,10120.462800,784.532000,-1019.891600
360.966279,10277.369200,941.438400,549.172400
360.966584,10591.182000,78.453200,-78.453200
360.966890,10042.009600,392.266000,0.000000
360.967196,10355.822400,627.625600,-392.266000
360.967501,10355.822400,549.172400,-313.812800
360.967807,10120.462800,78.453200,-627.625600
360.968112,10277.369200,313.812800,-235.359600
360.968418,10355.822400,156.906400,-313.812800
360.968724,10198.916000,156.906400,-235.359600
360.969029,10277.369200,313.812800,-392.266000
360.969335,10277.369200,0.000000,-313.812800
360.969640,10669.635200,0.000000,-313.812800
360.969946,10198.916000,0.000000,-313.812800
360.970252,10198.916000,-235.359600,0.000000
360.970557,10042.009600,-313.812800,-235.359600
360.970863,10277.369200,-235.359600,-392.266000
360.971168,10512.728800,-392.266000,392.266000
360.971474,10198.916000,-392.266000,-156.906400
360.971780,10198.916000,-313.812800,0.000000
360.972085,10277.369200,-549.172400,-470.719200
360.972391,10120.462800,-627.625600,0.000000
360.972697,10277.369200,-549.172400,0.000000
360.973002,10277.369200,-784.532000,-235.359600
360.973308,10277.369200,-941.438400,0.000000
360.973613,10277.369200,-862.985200,0.000000
360.973919,10198.916000,-862.985200,0.000000
360.974225,10042.009600,-941.438400,0.000000
360.974530,10277.369200,-1098.344800,-313.812800
360.974836,10042.009600,-1098.344800,-156.906400
360.975141,10042.009600,-1019.891600,0.000000
360.975447,10042.009600,-1176.798000,0.000000
360.975753,10120.462800,-941.438400,0.000000
360.976058,9728.196800,-941.438400,0.000000
360.976364,9963.556400,-1098.344800,0.000000
360.976669,10042.009600,-1098.344800,-235.359600
360.976975,10042.009600,-1333.704400,-156.906400
360.977281,9885.103200,-1098.344800,0.000000
360.977586,9728.196800,-1019.891600,0.000000
360.977892,9963.556400,-1255.251200,0.000000
360.978197,9963.556400,-1176.798000,0.000000
360.978503,9885.103200,-1176.798000,78.453200
360.978809,10042.009600,-1333.704400,0.000000
360.979114,9885.103200,-1019.891600,470.719200
360.979420,9963.556400,-1255.251200,156.906400
360.979726,9963.556400,-1412.157600,78.453200
360.980031,9806.650000,-1490.610800,235.359600
360.980337,10042.009600,-1490.610800,78.453200
360.980642,10042.009600,-1412.157600,235.359600
360.980948,9963.556400,-1255.251200,156.906400
360.981254,9885.103200,-1255.251200,78.453200
360.981559,9963.556400,-1412.157600,0.000000
360.981865,9885.103200,-1333.704400,78.453200
360.982170,9963.556400,-1019.891600,78.453200
360.982476,9963.556400,-1333.704400,0.000000
360.982782,9806.650000,-1569.064000,392.266000
360.983087,9492.837200,-1333.704400,784.532000
360.983393,10277.369200,-1569.064000,0.000000
360.983698,9728.196800,-1255.251200,78.453200
360.984004,9963.556400,-1255.251200,0.000000
360.984310,9649.743600,-1412.157600,78.453200
360.984615,9806.650000,-2353.596000,78.453200
360.984921,10198.916000,-1255.251200,78.453200
360.985227,9728.196800,-1490.610800,706.078800
360.985532,9806.650000,-1255.251200,470.719200
360.985838,9806.650000,-1412.157600,78.453200
360.986143,9728.196800,-1098.344800,235.359600
360.986449,9806.650000,-1098.344800,235.359600
360.986755,9806.650000,-862.985200,1019.891600
360.987060,9963.556400,-1019.891600,392.266000
360.987366,10042.009600,-1098.344800,235.359600
360.987671,9963.556400,-784.532000,313.812800
360.987977,9963.556400,-784.532000,0.000000
360.988283,10042.009600,-1019.891600,313.812800
360.988588,10198.916000,-1098.344800,156.906400
360.988894,9885.103200,-862.985200,156.906400
360.989199,9806.650000,-706.078800,78.453200
360.989505,9885.103200,-784.532000,156.906400
360.989811,10042.009600,-706.078800,235.359600
360.990116,10277.369200,-862.985200,313.812800
360.990422,9885.103200,-627.625600,313.812800
360.990728,9963.556400,-627.625600,235.359600
360.991033,9963.556400,-627.625600,156.906400
360.991339,9806.650000,-156.906400,78.453200
360.991644,10042.009600,-470.719200,862.985200
360.991950,10042.009600,-235.359600,156.906400
360.992256,10042.009600,-235.359600,235.359600
360.992561,9885.103200,-156.906400,156.906400
360.992867,10042.009600,-156.906400,0.000000
360.993172,9649.743600,-235.359600,549.172400
360.993478,9963.556400,0.000000,313.812800
360.993784,9728.196800,0.000000,78.453200
360.994089,9963.556400,0.000000,0.000000
360.994395,9963.556400,0.000000,78.453200
360.994700,9963.556400,156.906400,0.000000
360.995006,10198.916000,235.359600,-156.906400
360.995312,9963.556400,235.359600,78.453200
360.995617,9885.103200,313.812800,0.000000
360.995923,9963.556400,392.266000,235.359600
360.996229,9885.103200,392.266000,156.906400
360.996534,9571.290400,862.985200,-156.906400
360.996840,9728.196800,470.719200,78.453200
360.997145,10042.009600,470.719200,0.000000
360.997451,9963.556400,392.266000,156.906400
360.997757,10042.009600,392.266000,0.000000
360.998062,9728.196800,862.985200,-313.812800
360.998368,9806.650000,627.625600,-156.906400
360.998673,9806.650000,627.625600,0.000000
360.998979,9963.556400,627.625600,78.453200
360.999285,10042.009600,549.172400,0.000000
360.999590,10120.462800,706.078800,0.000000
360.999896,9806.650000,784.532000,0.000000
361.000201,9885.103200,627.625600,0.000000
361.000507,9885.103200,706.078800,0.000000
361.000813,9885.103200,784.532000,0.000000
361.001118,9571.290400,627.625600,-78.453200
361.001424,9885.103200,627.625600,0.000000
361.001730,10042.009600,1176.798000,-784.532000
361.002035,9728.196800,706.078800,1098.344800
361.002341,10042.009600,862.985200,0.000000
361.002646,9885.103200,2118.236400,78.453200
361.002952,9728.196800,1176.798000,78.453200
361.003258,9963.556400,1098.344800,-313.812800
361.003563,9963.556400,706.078800,0.000000
361.003869,10042.009600,627.625600,-235.359600
361.004174,10042.009600,1176.798000,0.000000
361.004480,9885.103200,706.078800,-549.172400
361.004786,10042.009600,627.625600,-235.359600
361.005091,10042.009600,862.985200,-156.906400
361.005397,10042.009600,627.625600,0.000000
361.005702,10042.009600,862.985200,-156.906400
361.006008,10042.009600,862.985200,0.000000
361.006314,10042.009600,784.532000,-235.359600
361.006619,9885.103200,627.625600,0.000000
361.006925,10042.009600,627.625600,-156.906400
361.007231,10042.009600,0.000000,-156.906400
361.007536,10198.916000,706.078800,-784.532000
361.007842,10042.009600,706.078800,-235.359600
361.008147,10042.009600,470.719200,-156.906400
361.008453,10277.369200,549.172400,0.000000
361.008759,10277.369200,470.719200,0.000000
361.009064,10120.462800,627.625600,78.453200
361.009370,10042.009600,313.812800,0.000000
361.009675,10042.009600,392.266000,0.000000
361.009981,10120.462800,313.812800,-235.359600
361.010287,10042.009600,313.812800,0.000000
361.010592,10120.462800,627.625600,235.359600
361.010898,10042.009600,392.266000,-235.359600
361.011203,10120.462800,549.172400,-156.906400
361.011509,10198.916000,313.812800,0.000000
361.011815,10120.462800,392.266000,0.000000
361.012120,10434.275600,313.812800,0.000000
361.012426,10198.916000,0.000000,0.000000
361.012732,10277.369200,156.906400,0.000000
361.013037,10042.009600,392.266000,0.000000
361.013343,10042.009600,235.359600,-313.812800
361.013648,10042.009600,78.453200,0.000000
361.013954,10120.462800,313.812800,-313.812800
361.014260,10042.009600,313.812800,-156.906400
361.014565,10120.462800,156.906400,-235.359600
361.014871,10042.009600,313.812800,-235.359600
361.015176,10120.462800,156.906400,0.000000
361.015482,9728.196800,470.719200,-627.625600
361.015788,9963.556400,235.359600,-156.906400
361.016093,10042.009600,313.812800,0.000000
361.016399,9885.103200,156.906400,0.000000
361.016704,10042.009600,78.453200,0.000000
361.017010,10512.728800,392.266000,0.000000
361.017316,10042.009600,0.000000,0.000000
361.017621,10042.009600,0.000000,-470.719200
361.017927,9806.650000,0.000000,-156.906400
361.018233,10042.009600,0.000000,0.000000
361.018538,10355.822400,0.000000,-313.812800
361.018844,10042.009600,0.000000,-313.812800
361.019149,10042.009600,235.359600,0.000000
361.019455,10120.462800,0.000000,-313.812800
361.019761,9963.556400,-235.359600,0.000000
361.020066,8865.211600,78.453200,-392.266000
361.020372,9728.196800,-235.359600,0.000000
361.020677,9728.196800,-156.906400,-784.532000
361.020983,9100.571200,-156.906400,-392.266000
361.021289,9728.196800,-235.359600,0.000000
361.021594,10355.822400,-470.719200,627.625600
361.021900,10042.009600,-470.719200,0.000000
361.022205,9885.103200,-392.266000,0.000000
361.022511,9963.556400,-156.906400,0.000000
361.022817,10042.009600,-313.812800,0.000000
361.023122,10042.009600,-392.266000,156.906400
361.023428,9806.650000,0.000000,0.000000
361.023734,9806.650000,-313.812800,0.000000
361.024039,10042.009600,-549.172400,0.000000
361.024345,9963.556400,-470.719200,0.000000
361.024650,9963.556400,-313.812800,0.000000
361.024956,10042.009600,-392.266000,156.906400
361.025262,9963.556400,-313.812800,78.453200
361.025567,9885.103200,-392.266000,0.000000
361.025873,9885.103200,-392.266000,156.906400
361.026178,9806.650000,-392.266000,78.453200
361.026484,10277.369200,-627.625600,235.359600
361.026790,9885.103200,-313.812800,0.000000
361.027095,9885.103200,-392.266000,235.359600
361.027401,9963.556400,-235.359600,0.000000
361.027706,9963.556400,0.000000,0.000000
361.028012,9963.556400,0.000000,78.453200
361.028318,9806.650000,-235.359600,0.000000
361.028623,9728.196800,0.000000,0.000000
361.028929,9728.196800,0.000000,156.906400
361.029235,9728.196800,0.000000,156.906400
361.029540,9728.196800,0.000000,156.906400
361.029846,9649.743600,0.000000,-392.266000
361.030151,9728.196800,0.000000,0.000000
361.030457,9885.103200,0.000000,78.453200
361.030763,9728.196800,156.906400,156.906400
361.031068,9963.556400,0.000000,78.453200
361.031374,9728.196800,470.719200,0.000000
361.031679,9806.650000,313.812800,235.359600
361.031985,9963.556400,78.453200,0.000000
361.032291,9885.103200,156.906400,0.000000
361.032596,9806.650000,0.000000,0.000000
361.032902,9492.837200,392.266000,-392.266000
361.033207,9885.103200,156.906400,0.000000
361.033513,9728.196800,470.719200,78.453200
361.033819,9885.103200,0.000000,0.000000
361.034124,9806.650000,235.359600,78.453200
361.034430,9728.196800,-156.906400,313.812800
361.034735,9728.196800,235.359600,156.906400
361.035041,9806.650000,78.453200,0.000000
361.035347,9728.196800,235.359600,156.906400
361.035652,9728.196800,156.906400,156.906400
361.035958,9806.650000,78.453200,78.453200
361.036264,9728.196800,235.359600,78.453200
361.036569,9806.650000,313.812800,0.000000
361.036875,9885.103200,235.359600,78.453200
361.037180,9963.556400,-549.172400,0.000000
361.037486,9728.196800,156.906400,313.812800
361.037792,10198.916000,706.078800,1019.891600
361.038097,10748.088400,0.000000,78.453200
361.038403,10042.009600,235.359600,0.000000
361.038708,10277.369200,156.906400,0.000000
361.039014,10042.009600,313.812800,78.453200
361.039320,10198.916000,-156.906400,78.453200
361.039625,9885.103200,0.000000,235.359600
361.039931,10042.009600,78.453200,0.000000
361.040236,10042.009600,78.453200,0.000000
361.040542,10042.009600,78.453200,235.359600
361.040848,10042.009600,78.453200,156.906400
361.041153,10120.462800,78.453200,0.000000
361.041459,10042.009600,78.453200,78.453200
361.041765,10042.009600,0.000000,0.000000
361.042070,10120.462800,235.359600,0.000000
361.042376,9963.556400,78.453200,78.453200
361.042681,9885.103200,0.000000,-313.812800
361.042987,9885.103200,235.359600,0.000000
361.043293,9963.556400,78.453200,-156.906400
361.043598,10042.009600,0.000000,0.000000
361.043904,10042.009600,156.906400,0.000000
361.044209,10277.369200,156.906400,-313.812800
361.044515,9963.556400,78.453200,0.000000
361.044821,10120.462800,78.453200,0.000000
361.045126,10042.009600,156.906400,0.000000
361.045432,10042.009600,156.906400,0.000000
361.045737,10277.369200,78.453200,0.000000
361.046043,10042.009600,156.906400,-156.906400
361.046349,9963.556400,313.812800,0.000000
361.046654,10042.009600,235.359600,0.000000
361.046960,9963.556400,156.906400,-235.359600
361.047266,10120.462800,0.000000,-549.172400
361.047571,10120.462800,313.812800,0.000000
361.047877,9963.556400,0.000000,0.000000
361.048182,10042.009600,78.453200,0.000000
361.048488,10120.462800,0.000000,0.000000
361.048794,10042.009600,156.906400,156.906400
361.049099,10198.916000,235.359600,-156.906400
361.049405,10042.009600,0.000000,0.000000
361.049710,9963.556400,78.453200,0.000000
361.050016,10042.009600,235.359600,-156.906400
361.050322,9963.556400,78.453200,-313.812800
361.050627,9649.743600,313.812800,-235.359600
361.050933,10120.462800,78.453200,0.000000
361.051238,10120.462800,0.000000,-156.906400
361.051544,10120.462800,0.000000,-156.906400
361.051850,10042.009600,0.000000,0.000000
361.052155,10042.009600,-470.719200,-235.359600
361.052461,9963.556400,0.000000,0.000000
361.052767,9963.556400,0.000000,-156.906400
361.053072,10042.009600,0.000000,0.000000
361.053378,10042.009600,0.000000,0.000000
361.053683,10120.462800,0.000000,-549.172400
361.053989,10042.009600,0.000000,0.000000
361.054295,10277.369200,0.000000,0.000000
361.054600,10198.916000,0.000000,0.000000
361.054906,10120.462800,-156.906400,0.000000
361.055211,10277.369200,0.000000,-78.453200
361.055517,10512.728800,-313.812800,-235.359600
361.055823,10042.009600,0.000000,78.453200
361.056128,10042.009600,-784.532000,-78.453200
361.056434,10277.369200,0.000000,156.906400
361.056739,10042.009600,-156.906400,862.985200
361.057045,11218.807600,-706.078800,-156.906400
361.057351,10042.009600,78.453200,78.453200
361.057656,10120.462800,0.000000,-313.812800
361.057962,10198.916000,-235.359600,0.000000
361.058268,10042.009600,156.906400,-78.453200
361.058573,10120.462800,0.000000,0.000000
361.058879,10277.369200,-156.906400,0.000000
361.059184,10120.462800,0.000000,-78.453200
361.059490,10042.009600,-156.906400,0.000000
361.059796,10120.462800,0.000000,-156.906400
361.060101,9885.103200,0.000000,0.000000
361.060407,9885.103200,0.000000,0.000000
361.060712,10042.009600,0.000000,0.000000
361.061018,10042.009600,0.000000,0.000000
361.061324,10042.009600,235.359600,0.000000
361.061629,10042.009600,156.906400,-156.906400
361.061935,9963.556400,0.000000,-313.812800
361.062240,10042.009600,0.000000,0.000000
361.062546,10042.009600,0.000000,0.000000
361.062852,10042.009600,-156.906400,-78.453200
361.063157,10512.728800,-627.625600,392.266000
361.063463,10042.009600,0.000000,78.453200
361.063769,10042.009600,0.000000,0.000000
361.064074,9885.103200,0.000000,0.000000
361.064380,9885.103200,0.000000,-313.812800
361.064685,10120.462800,156.906400,-392.266000
361.064991,9963.556400,0.000000,0.000000
361.065297,9885.103200,-156.906400,0.000000
361.065602,9885.103200,0.000000,-235.359600
361.065908,10042.009600,-156.906400,-156.906400
361.066213,10198.916000,0.000000,313.812800
361.066519,9963.556400,-156.906400,-156.906400
361.066825,9963.556400,-156.906400,0.000000
361.067130,9963.556400,-156.906400,0.000000
361.067436,9963.556400,-235.359600,-156.906400
361.067741,9963.556400,0.000000,78.453200
361.068047,9963.556400,-313.812800,0.000000
361.068353,10042.009600,-549.172400,0.000000
361.068658,9963.556400,-235.359600,78.453200
361.068964,9963.556400,-392.266000,0.000000
361.069270,9963.556400,-313.812800,0.000000
361.069575,10591.182000,-392.266000,0.000000
361.069881,9963.556400,-156.906400,78.453200
361.070186,9806.650000,-313.812800,0.000000
361.070492,9963.556400,-470.719200,0.000000
361.070798,9885.103200,-392.266000,0.000000
361.071103,10198.916000,-392.266000,470.719200
361.071409,9885.103200,-470.719200,0.000000
361.071714,9885.103200,-392.266000,0.000000
361.072020,10042.009600,-470.719200,0.000000
361.072326,9885.103200,-392.266000,0.000000
361.072631,10277.369200,0.000000,235.359600
361.072937,9806.650000,-235.359600,0.000000
361.073242,9885.103200,706.078800,-78.453200
361.073548,9885.103200,-156.906400,78.453200
361.073854,10042.009600,-392.266000,0.000000
361.074159,9963.556400,0.000000,313.812800
361.074465,9963.556400,-235.359600,-156.906400
361.074771,8943.664800,-78.453200,0.000000
361.075076,9806.650000,0.000000,-156.906400
361.075382,10120.462800,-627.625600,-313.812800
361.075687,10120.462800,0.000000,-156.906400
361.075993,9963.556400,-235.359600,0.000000
361.076299,10042.009600,-313.812800,0.000000
361.076604,9963.556400,-470.719200,0.000000
361.076910,9806.650000,-470.719200,0.000000
361.077215,9885.103200,-313.812800,156.906400
361.077521,9649.743600,0.000000,156.906400
361.077827,9885.103200,-235.359600,0.000000
361.078132,9885.103200,-313.812800,0.000000
361.078438,9806.650000,-392.266000,0.000000
361.078743,9885.103200,0.000000,0.000000
361.079049,10512.728800,-313.812800,0.000000
361.079355,9885.103200,-313.812800,0.000000
361.079660,9885.103200,-313.812800,0.000000
361.079966,9963.556400,0.000000,0.000000
361.080272,9885.103200,0.000000,0.000000
361.080577,10042.009600,0.000000,470.719200
361.080883,9806.650000,0.000000,0.000000
361.081188,9885.103200,0.000000,0.000000
361.081494,9963.556400,0.000000,0.000000
361.081800,9806.650000,0.000000,0.000000
361.082105,9885.103200,0.000000,-313.812800
361.082411,10120.462800,-156.906400,0.000000
361.082716,9963.556400,-156.906400,0.000000
361.083022,9963.556400,0.000000,0.000000
361.083328,9963.556400,0.000000,-235.359600
361.083633,10120.462800,-156.906400,0.000000
361.083939,10042.009600,0.000000,-235.359600
361.084244,10042.009600,0.000000,0.000000
361.084550,10042.009600,-156.906400,0.000000
361.084856,9885.103200,-156.906400,0.000000
361.085161,10042.009600,0.000000,0.000000
361.085467,10042.009600,0.000000,-549.172400
361.085773,9963.556400,78.453200,0.000000
361.086078,9963.556400,0.000000,0.000000
361.086384,10042.009600,0.000000,0.000000
361.086689,10042.009600,0.000000,0.000000
361.086995,10277.369200,0.000000,0.000000
361.087301,10042.009600,0.000000,0.000000
361.087606,9885.103200,78.453200,0.000000
361.087912,9885.103200,78.453200,78.453200
361.088217,9885.103200,0.000000,0.000000
361.088523,10042.009600,313.812800,-549.172400
361.088829,10198.916000,235.359600,-235.359600
361.089134,10042.009600,235.359600,0.000000
361.089440,10120.462800,0.000000,-156.906400
361.089745,10120.462800,156.906400,0.000000
361.090051,9885.103200,156.906400,235.359600
361.090357,9806.650000,235.359600,0.000000
361.090662,10042.009600,156.906400,0.000000
361.090968,9885.103200,313.812800,0.000000
361.091274,10120.462800,156.906400,-627.625600
361.091579,9335.930800,235.359600,-235.359600
361.091885,10042.009600,156.906400,78.453200
361.092190,10042.009600,862.985200,-156.906400
361.092496,9571.290400,549.172400,0.000000
361.092802,11218.807600,0.000000,235.359600
361.093107,10042.009600,1176.798000,-78.453200
361.093413,10591.182000,1019.891600,-235.359600
361.093718,10042.009600,470.719200,0.000000
361.094024,10042.009600,392.266000,-235.359600
361.094330,9885.103200,470.719200,0.000000
361.094635,10042.009600,627.625600,0.000000
361.094941,10042.009600,941.438400,313.812800
361.095246,10198.916000,313.812800,0.000000
361.095552,10042.009600,470.719200,0.000000
361.095858,10042.009600,549.172400,0.000000
361.096163,9963.556400,549.172400,0.000000
361.096469,10120.462800,1098.344800,-313.812800
361.096774,10120.462800,392.266000,156.906400
361.097080,10042.009600,313.812800,156.906400
361.097386,10042.009600,549.172400,0.000000
361.097691,10042.009600,470.719200,156.906400
361.097997,9963.556400,549.172400,0.000000
361.098303,10120.462800,470.719200,-392.266000
361.098608,10042.009600,470.719200,0.000000
361.098914,10042.009600,549.172400,0.000000
361.099219,10042.009600,470.719200,0.000000
361.099525,10120.462800,235.359600,0.000000
361.099831,10042.009600,313.812800,235.359600
361.100136,10042.009600,470.719200,78.453200
361.100442,9963.556400,627.625600,0.000000
361.100747,10042.009600,549.172400,0.000000
361.101053,9806.650000,627.625600,0.000000
361.101359,10042.009600,862.985200,627.625600
361.101664,9963.556400,470.719200,0.000000
361.101970,9963.556400,235.359600,0.000000
361.102275,10042.009600,313.812800,0.000000
361.102581,9885.103200,470.719200,0.000000
361.102887,9963.556400,313.812800,-549.172400
361.103192,9963.556400,235.359600,0.000000
361.103498,9963.556400,78.453200,0.000000
361.103804,10042.009600,235.359600,78.453200
361.104109,9885.103200,235.359600,0.000000
361.104415,9649.743600,706.078800,156.906400
361.104720,10042.009600,313.812800,0.000000
361.105026,10042.009600,235.359600,0.000000
361.105332,10042.009600,235.359600,0.000000
361.105637,10042.009600,78.453200,0.000000
361.105943,10042.009600,235.359600,549.172400
361.106248,9963.556400,313.812800,78.453200
361.106554,9963.556400,235.359600,0.000000
361.106860,10042.009600,0.000000,156.906400
361.107165,10042.009600,156.906400,0.000000
361.107471,10042.009600,549.172400,-235.359600
361.107776,10120.462800,156.906400,235.359600
361.108082,10042.009600,156.906400,0.000000
361.108388,9885.103200,156.906400,0.000000
361.108693,10042.009600,235.359600,78.453200
361.108999,9885.103200,706.078800,0.000000
361.109305,10042.009600,235.359600,0.000000
361.109610,10042.009600,549.172400,392.266000
361.109916,10120.462800,78.453200,0.000000
361.110221,10198.916000,78.453200,0.000000
361.110527,9100.571200,235.359600,0.000000
361.110833,10434.275600,0.000000,-78.453200
361.111138,10042.009600,156.906400,0.000000
361.111444,9257.477600,-78.453200,0.000000
361.111749,10042.009600,0.000000,78.453200
361.112055,10042.009600,0.000000,156.906400
361.112361,9806.650000,0.000000,0.000000
361.112666,9806.650000,78.453200,78.453200
361.112972,10042.009600,0.000000,78.453200
361.113277,10042.009600,0.000000,0.000000
361.113583,9806.650000,313.812800,78.453200
361.113889,10277.369200,0.000000,392.266000
361.114194,9885.103200,0.000000,-156.906400
361.114500,9963.556400,0.000000,0.000000
361.114806,9885.103200,0.000000,0.000000
361.115111,9885.103200,78.453200,0.000000
361.115417,9963.556400,0.000000,0.000000
361.115722,10120.462800,0.000000,0.000000
361.116028,9963.556400,0.000000,156.906400
361.116334,9885.103200,0.000000,-313.812800
361.116639,9649.743600,78.453200,0.000000
361.116945,9728.196800,0.000000,470.719200
361.117250,9414.384000,78.453200,78.453200
361.117556,9885.103200,0.000000,78.453200
361.117862,9885.103200,0.000000,0.000000
361.118167,10042.009600,0.000000,0.000000
361.118473,9806.650000,0.000000,0.000000
361.118778,9963.556400,78.453200,156.906400
361.119084,9806.650000,0.000000,0.000000
361.119390,10042.009600,0.000000,0.000000
361.119695,9806.650000,0.000000,0.000000
361.120001,9885.103200,0.000000,0.000000
361.120307,9728.196800,0.000000,0.000000
361.120612,9806.650000,0.000000,0.000000
361.120918,10042.009600,-156.906400,0.000000
361.121223,9806.650000,-156.906400,78.453200
361.121529,9963.556400,0.000000,0.000000
361.121835,10198.916000,-392.266000,-156.906400
361.122140,9963.556400,-235.359600,156.906400
361.122446,9963.556400,78.453200,-235.359600
361.122751,10042.009600,0.000000,-156.906400
361.123057,10042.009600,-235.359600,0.000000
361.123363,9963.556400,0.000000,470.719200
361.123668,10042.009600,-156.906400,78.453200
361.123974,10042.009600,0.000000,0.000000
361.124279,9885.103200,0.000000,-235.359600
361.124585,10042.009600,0.000000,0.000000
361.124891,9885.103200,0.000000,0.000000
361.125196,9885.103200,392.266000,235.359600
361.125502,10042.009600,0.000000,-235.359600
361.125808,9963.556400,0.000000,78.453200
361.126113,9885.103200,0.000000,0.000000
361.126419,10042.009600,-313.812800,0.000000
361.126724,10042.009600,-313.812800,0.000000
361.127030,10042.009600,0.000000,156.906400
361.127336,9885.103200,0.000000,549.172400
361.127641,10904.994800,-862.985200,-156.906400
361.127947,9963.556400,0.000000,0.000000
361.128252,9885.103200,156.906400,784.532000
361.128558,10983.448000,156.906400,0.000000
361.128864,10277.369200,313.812800,156.906400
361.129169,9963.556400,0.000000,0.000000
361.129475,10042.009600,392.266000,156.906400
361.129780,10120.462800,0.000000,0.000000
361.130086,10042.009600,0.000000,235.359600
361.130392,9963.556400,0.000000,0.000000
361.130697,10042.009600,0.000000,0.000000
361.131003,10042.009600,0.000000,-235.359600
361.131309,10042.009600,0.000000,-235.359600
361.131614,10042.009600,0.000000,0.000000
361.131920,10042.009600,0.000000,0.000000
361.132225,10042.009600,-156.906400,0.000000
361.132531,9963.556400,0.000000,0.000000
361.132837,10042.009600,0.000000,0.000000
361.133142,10042.009600,0.000000,0.000000
361.133448,10042.009600,0.000000,235.359600
361.133753,9728.196800,78.453200,78.453200
361.134059,10042.009600,0.000000,-156.906400
361.134365,10042.009600,0.000000,-156.906400
361.134670,10042.009600,-156.906400,0.000000
361.134976,9963.556400,0.000000,0.000000
361.135281,9963.556400,0.000000,-392.266000
361.135587,9885.103200,-156.906400,0.000000
361.135893,10120.462800,-313.812800,0.000000
361.136198,10042.009600,0.000000,0.000000
361.136504,10042.009600,-156.906400,-235.359600
361.136810,10042.009600,156.906400,-941.438400
361.137115,10042.009600,0.000000,-392.266000
361.137421,10042.009600,-156.906400,-156.906400
361.137726,10120.462800,-156.906400,-156.906400
361.138032,10042.009600,0.000000,0.000000
361.138338,9806.650000,0.000000,0.000000
361.138643,9728.196800,0.000000,156.906400
361.138949,10042.009600,-313.812800,0.000000
361.139254,10120.462800,-235.359600,0.000000
361.139560,10120.462800,-313.812800,-313.812800
361.139866,10042.009600,-156.906400,392.266000
361.140171,10042.009600,-235.359600,-235.359600
361.140477,10042.009600,0.000000,0.000000
361.140782,9963.556400,0.000000,0.000000
361.141088,9885.103200,0.000000,0.000000
361.141394,10120.462800,-156.906400,0.000000
361.141699,9728.196800,313.812800,-313.812800
361.142005,10120.462800,0.000000,0.000000
361.142311,9963.556400,0.000000,0.000000
361.142616,10042.009600,-156.906400,156.906400
361.142922,9963.556400,-235.359600,0.000000
361.143227,10277.369200,235.359600,235.359600
361.143533,9885.103200,-235.359600,-156.906400
361.143839,10042.009600,-235.359600,0.000000
361.144144,10120.462800,-470.719200,0.000000
361.144450,10042.009600,0.000000,78.453200
361.144755,10042.009600,78.453200,78.453200
361.145061,10120.462800,-392.266000,0.000000
361.145367,10042.009600,-313.812800,0.000000
361.145672,10042.009600,0.000000,-78.453200
361.145978,9963.556400,-470.719200,-235.359600
361.146283,9335.930800,-78.453200,549.172400
361.146589,10591.182000,-1255.251200,78.453200
361.146895,10042.009600,-78.453200,-235.359600
361.147200,10042.009600,-156.906400,862.985200
361.147506,11061.901200,-627.625600,156.906400
361.147812,10042.009600,-156.906400,0.000000
361.148117,9963.556400,0.000000,78.453200
361.148423,9492.837200,78.453200,392.266000
361.148728,9335.930800,313.812800,156.906400
361.149034,8708.305200,-235.359600,0.000000
361.149340,9963.556400,0.000000,0.000000
361.149645,9806.650000,0.000000,0.000000
361.149951,9335.930800,156.906400,78.453200
361.150256,9963.556400,0.000000,0.000000
361.150562,9806.650000,-235.359600,0.000000
361.150868,10042.009600,0.000000,0.000000
361.151173,9885.103200,-235.359600,0.000000
361.151479,9963.556400,-470.719200,0.000000
361.151784,10355.822400,-156.906400,235.359600
361.152090,10042.009600,0.000000,0.000000
361.152396,10042.009600,0.000000,78.453200
361.152701,9806.650000,0.000000,0.000000
361.153007,9963.556400,0.000000,0.000000
361.153312,9963.556400,313.812800,313.812800
361.153618,9963.556400,0.000000,78.453200
361.153924,9963.556400,0.000000,0.000000
361.154229,10042.009600,-156.906400,0.000000
361.154535,10042.009600,0.000000,0.000000
361.154841,10042.009600,0.000000,392.266000
361.155146,10042.009600,-235.359600,0.000000
361.155452,9963.556400,0.000000,0.000000
361.155757,9963.556400,-156.906400,78.453200
361.156063,9885.103200,0.000000,78.453200
361.156369,10042.009600,156.906400,313.812800
361.156674,10120.462800,0.000000,156.906400
361.156980,9963.556400,0.000000,0.000000
361.157285,10042.009600,0.000000,0.000000
361.157591,10042.009600,0.000000,0.000000
361.157897,9728.196800,470.719200,392.266000
361.158202,9885.103200,0.000000,0.000000
361.158508,9963.556400,0.000000,0.000000
361.158813,9728.196800,0.000000,0.000000
361.159119,9963.556400,0.000000,0.000000
361.159425,9885.103200,78.453200,0.000000
361.159730,9885.103200,156.906400,392.266000
361.160036,10042.009600,0.000000,0.000000
361.160342,9885.103200,78.453200,156.906400
361.160647,9963.556400,0.000000,235.359600
361.160953,10042.009600,235.359600,0.000000
361.161258,9885.103200,549.172400,0.000000
361.161564,9885.103200,0.000000,0.000000
361.161870,10042.009600,0.000000,0.000000
361.162175,9885.103200,156.906400,0.000000
361.162481,10042.009600,0.000000,0.000000
361.162786,10042.009600,235.359600,-235.359600
361.163092,10042.009600,78.453200,0.000000
361.163398,9963.556400,235.359600,0.000000
361.163703,9728.196800,0.000000,78.453200
361.164009,10434.275600,392.266000,0.000000
361.164314,10042.009600,156.906400,-549.172400
361.164620,9885.103200,0.000000,-78.453200
361.164926,10277.369200,78.453200,0.000000
361.165231,9963.556400,156.906400,78.453200
361.165537,10042.009600,0.000000,-392.266000
361.165843,10198.916000,0.000000,-156.906400
361.166148,10042.009600,156.906400,0.000000
361.166454,9885.103200,235.359600,0.000000
361.166759,9885.103200,156.906400,78.453200
361.167065,9885.103200,156.906400,0.000000
361.167371,10042.009600,313.812800,392.266000
361.167676,9963.556400,156.906400,0.000000
361.167982,9963.556400,156.906400,-156.906400
361.168287,9963.556400,235.359600,0.000000
361.168593,10042.009600,313.812800,0.000000
361.168899,9885.103200,235.359600,0.000000
361.169204,10120.462800,235.359600,0.000000
361.169510,9649.743600,235.359600,78.453200
361.169815,9885.103200,235.359600,0.000000
361.170121,10042.009600,235.359600,0.000000
361.170427,9963.556400,78.453200,0.000000
361.170732,10198.916000,313.812800,706.078800
361.171038,10042.009600,235.359600,-156.906400
361.171344,9885.103200,235.359600,-235.359600
361.171649,10042.009600,235.359600,0.000000
361.171955,9963.556400,235.359600,78.453200
361.172260,9963.556400,0.000000,392.266000
361.172566,10120.462800,156.906400,0.000000
361.172872,10042.009600,78.453200,-235.359600
361.173177,10042.009600,78.453200,-156.906400
361.173483,10042.009600,78.453200,0.000000
361.173788,10120.462800,0.000000,313.812800
361.174094,10042.009600,0.000000,78.453200
361.174400,10042.009600,78.453200,235.359600
361.174705,10042.009600,78.453200,0.000000
361.175011,9963.556400,78.453200,0.000000
361.175316,10042.009600,0.000000,0.000000
361.175622,10120.462800,156.906400,-235.359600
361.175928,10042.009600,156.906400,78.453200
361.176233,10042.009600,78.453200,0.000000
361.176539,10042.009600,0.000000,0.000000
361.176845,9571.290400,0.000000,78.453200
361.177150,9963.556400,0.000000,0.000000
361.177456,10042.009600,0.000000,0.000000
361.177761,9963.556400,0.000000,-156.906400
361.178067,10042.009600,0.000000,0.000000
361.178373,10198.916000,235.359600,78.453200
361.178678,9885.103200,78.453200,-235.359600
361.178984,10042.009600,0.000000,-156.906400
361.179289,9963.556400,0.000000,0.000000
361.179595,9885.103200,78.453200,0.000000
361.179901,10042.009600,78.453200,-156.906400
361.180206,9963.556400,0.000000,-156.906400
361.180512,9963.556400,0.000000,0.000000
361.180817,10042.009600,156.906400,0.000000
361.181123,10042.009600,0.000000,0.000000
361.181429,9963.556400,0.000000,313.812800
361.181734,10042.009600,-78.453200,-235.359600
361.182040,9414.384000,0.000000,392.266000
361.182346,11061.901200,-235.359600,392.266000
361.182651,9963.556400,862.985200,-78.453200
361.182957,9963.556400,313.812800,0.000000
361.183262,10198.916000,-313.812800,156.906400
361.183568,9806.650000,0.000000,78.453200
361.183874,9963.556400,0.000000,78.453200
361.184179,9963.556400,0.000000,0.000000
361.184485,9963.556400,0.000000,78.453200
361.184790,9963.556400,235.359600,-549.172400
361.185096,9885.103200,0.000000,0.000000
361.185402,9963.556400,0.000000,78.453200
361.185707,9885.103200,156.906400,0.000000
361.186013,10042.009600,0.000000,0.000000
361.186318,9728.196800,235.359600,-235.359600
361.186624,9806.650000,0.000000,0.000000
