##drops=0,overflows=0,time_per_sample=0.000305580,start_range=0.000057,end_range=0.000029
#time,accel_x,accel_y,accel_z
366.119174,10042.009600,0.000000,0.000000
366.119480,9963.556400,0.000000,-627.625600
366.119785,10042.009600,156.906400,549.172400
366.120091,10591.182000,-706.078800,0.000000
366.120396,9963.556400,862.985200,0.000000
366.120702,9963.556400,0.000000,862.985200
366.121008,11218.807600,-156.906400,1098.344800
366.121313,10120.462800,313.812800,941.438400
366.121619,10042.009600,392.266000,941.438400
366.121924,10042.009600,784.532000,1490.610800
366.122230,10277.369200,941.438400,1647.517200
366.122536,10355.822400,941.438400,1882.876800
366.122841,10198.916000,1176.798000,2510.502400
366.123147,10042.009600,1333.704400,2510.502400
366.123452,10042.009600,1569.064000,2432.049200
366.123758,10042.009600,1490.610800,2510.502400
366.124063,9649.743600,1725.970400,2196.689600
366.124369,10042.009600,1255.251200,2510.502400
366.124675,9806.650000,1647.517200,2902.768400
366.124980,10198.916000,1490.610800,3922.660000
366.125286,10042.009600,1882.876800,4628.738800
366.125591,10198.916000,2510.502400,5021.004800
366.125897,10042.009600,3295.034400,4471.832400
366.126203,10277.369200,3530.394000,5021.004800
366.126508,10120.462800,3844.206800,4628.738800
366.126814,10042.009600,3687.300400,4707.192000
366.127119,9806.650000,3765.753600,5021.004800
366.127425,9335.930800,3765.753600,5021.004800
366.127730,9806.650000,3059.674800,5883.990000
366.128036,9885.103200,2981.221600,6511.615600
366.128342,10042.009600,3451.940800,7060.788000
366.128647,10042.009600,3765.753600,7139.241200
366.128953,10512.728800,4707.192000,7453.054000
366.129258,10042.009600,5491.724000,6746.975200
366.129564,10198.916000,5727.083600,6511.615600
366.129869,10042.009600,5805.536800,6354.709200
366.130175,10120.462800,5491.724000,6590.068800
366.130481,10277.369200,4942.551600,6746.975200
366.130786,10120.462800,4628.738800,7453.054000
366.131092,10120.462800,4864.098400,8080.679600
366.131397,10434.275600,4785.645200,8159.132800
366.131703,10355.822400,5177.911200,7845.320000
366.132009,10120.462800,6119.349600,7531.507200
366.132314,9963.556400,7609.960400,7217.694400
366.132620,10042.009600,7374.600800,6825.428400
366.132925,10120.462800,7060.788000,6746.975200
366.133231,9885.103200,6982.334800,6668.522000
366.133536,10042.009600,6197.802800,7217.694400
366.133842,10591.182000,6119.349600,7531.507200
366.134148,10591.182000,6276.256000,7845.320000
366.134453,10355.822400,6119.349600,7531.507200
366.134759,10434.275600,6668.522000,6746.975200
366.135064,10591.182000,7609.960400,5962.443200
366.135370,9649.743600,7609.960400,4785.645200
366.135675,9414.384000,7374.600800,4393.379200
366.135981,8786.758400,6982.334800,3530.394000
366.136287,9963.556400,5962.443200,4707.192000
366.136592,9885.103200,4942.551600,4471.832400
366.136898,10904.994800,5021.004800,4942.551600
366.137203,10198.916000,4158.019600,4001.113200
366.137509,10591.182000,5021.004800,3765.753600
366.137815,10904.994800,5021.004800,3451.940800
366.138120,10355.822400,5648.630400,3373.487600
366.138426,10669.635200,6511.615600,2510.502400
366.138731,10748.088400,5648.630400,2510.502400
366.139037,10826.541600,4628.738800,2275.142800
366.139342,10042.009600,4707.192000,2039.783200
366.139648,9022.118000,4471.832400,1019.891600
366.139954,10591.182000,2824.315200,1098.344800
366.140259,11061.901200,2510.502400,1255.251200
366.140565,10198.916000,2275.142800,784.532000
366.140870,10355.822400,2745.862000,784.532000
366.141176,10748.088400,3373.487600,392.266000
366.141481,10904.994800,4001.113200,470.719200
366.141787,11689.526800,4236.472800,-470.719200
366.142093,10983.448000,4707.192000,0.000000
366.142398,11375.714000,3922.660000,0.000000
366.142704,10591.182000,3608.847200,0.000000
366.143009,10826.541600,2824.315200,-392.266000
366.143315,10748.088400,2510.502400,-627.625600
366.143621,10277.369200,1333.704400,-706.078800
366.143926,10120.462800,1490.610800,-1019.891600
366.144232,10277.369200,1804.423600,-862.985200
366.144537,9963.556400,2510.502400,-1333.704400
366.144843,10512.728800,2902.768400,-1333.704400
366.145148,9728.196800,3059.674800,-2039.783200
366.145454,9492.837200,2824.315200,-1804.423600
366.145760,10277.369200,3451.940800,-1725.970400
366.146065,9571.290400,2745.862000,-2118.236400
366.146371,10277.369200,2432.049200,-2039.783200
366.146676,9885.103200,1882.876800,-2353.596000
366.146982,9728.196800,1098.344800,-2196.689600
366.147287,9728.196800,784.532000,-2432.049200
366.147593,9022.118000,1569.064000,-2510.502400
366.147899,9100.571200,1804.423600,-2824.315200
366.148204,9649.743600,1882.876800,-2667.408800
366.148510,9649.743600,2510.502400,-2039.783200
366.148815,10198.916000,2353.596000,-2353.596000
366.149121,9963.556400,1333.704400,-2353.596000
366.149427,10277.369200,1098.344800,-2353.596000
366.149732,10669.635200,1882.876800,-2118.236400
366.150038,10042.009600,1019.891600,-2196.689600
366.150343,9885.103200,235.359600,-2353.596000
366.150649,9963.556400,0.000000,-2510.502400
366.150954,9806.650000,-235.359600,-2588.955600
366.151260,9335.930800,-392.266000,-2824.315200
366.151566,9571.290400,0.000000,-3059.674800
366.151871,9100.571200,-313.812800,-2667.408800
366.152177,10042.009600,-1176.798000,-2118.236400
366.152482,9492.837200,-392.266000,-2981.221600
366.152788,9179.024400,-1882.876800,-1804.423600
366.153094,10120.462800,-784.532000,-1333.704400
366.153399,11611.073600,-2353.596000,-1255.251200
366.153705,9728.196800,-784.532000,-1961.330000
366.154010,9649.743600,-1804.423600,-2510.502400
366.154316,10042.009600,-2510.502400,-2118.236400
366.154621,9728.196800,-2902.768400,-1961.330000
366.154927,9335.930800,-2588.955600,-1255.251200
366.155233,10669.635200,-3687.300400,-1569.064000
366.155538,9257.477600,-3295.034400,-392.266000
366.155844,9885.103200,-3844.206800,-1098.344800
366.156149,11061.901200,-2745.862000,-1569.064000
366.156455,10120.462800,-4001.113200,-627.625600
366.156760,10198.916000,-3844.206800,-941.438400
366.157066,10042.009600,-3765.753600,-862.985200
366.157372,9963.556400,-4314.926000,-784.532000
366.157677,10434.275600,-5021.004800,-706.078800
366.157983,10355.822400,-4785.645200,-392.266000
366.158288,9963.556400,-5021.004800,-706.078800
366.158594,9963.556400,-5334.817600,-392.266000
366.158900,10355.822400,-5570.177200,0.000000
366.159205,9963.556400,-5334.817600,78.453200
366.159511,10042.009600,-5021.004800,392.266000
366.159816,10198.916000,-4628.738800,627.625600
366.160122,10120.462800,-5021.004800,784.532000
366.160427,10042.009600,-4707.192000,549.172400
366.160733,10042.009600,-4471.832400,862.985200
366.161039,10120.462800,-4550.285600,862.985200
366.161344,10355.822400,-4236.472800,549.172400
366.161650,9571.290400,-4707.192000,941.438400
366.161955,9806.650000,-4707.192000,1098.344800
366.162261,9885.103200,-4785.645200,627.625600
366.162566,9414.384000,-4158.019600,549.172400
366.162872,9335.930800,-3844.206800,235.359600
366.163178,10042.009600,-3451.940800,627.625600
366.163483,10198.916000,-3295.034400,941.438400
366.163789,10120.462800,-2902.768400,941.438400
366.164094,9728.196800,-2510.502400,1176.798000
366.164400,9806.650000,-2432.049200,1098.344800
366.164706,9885.103200,-2745.862000,1725.970400
366.165011,9885.103200,-2588.955600,1569.064000
366.165317,9492.837200,-2275.142800,1647.517200
366.165622,9728.196800,-1961.330000,1412.157600
366.165928,9257.477600,-1882.876800,1725.970400
366.166233,9806.650000,-1176.798000,941.438400
366.166539,9414.384000,-1098.344800,941.438400
366.166845,9571.290400,-1019.891600,1019.891600
366.167150,9414.384000,-1019.891600,1569.064000
366.167456,9492.837200,-941.438400,1647.517200
366.167761,10042.009600,-1098.344800,1961.330000
366.168067,9571.290400,-392.266000,1490.610800
366.168372,9728.196800,0.000000,1725.970400
366.168678,9257.477600,0.000000,1255.251200
366.168984,9649.743600,156.906400,1255.251200
366.169289,9806.650000,0.000000,313.812800
366.169595,9571.290400,0.000000,627.625600
366.169900,9492.837200,0.000000,549.172400
366.170206,9257.477600,0.000000,313.812800
366.170512,9806.650000,-235.359600,784.532000
366.170817,9571.290400,-235.359600,1019.891600
366.171123,9963.556400,-392.266000,1255.251200
366.171428,9257.477600,392.266000,1255.251200
366.171734,9806.650000,627.625600,1098.344800
366.172039,10120.462800,784.532000,1176.798000
366.172345,10042.009600,1019.891600,549.172400
366.172651,9963.556400,392.266000,549.172400
366.172956,9728.196800,470.719200,313.812800
366.173262,9414.384000,0.000000,78.453200
366.173567,9100.571200,78.453200,-235.359600
366.173873,9492.837200,-784.532000,-313.812800
366.174179,9649.743600,-392.266000,-784.532000
366.174484,8786.758400,-78.453200,-78.453200
366.174790,9492.837200,235.359600,-235.359600
366.175095,9728.196800,1176.798000,-627.625600
366.175401,9492.837200,784.532000,235.359600
366.175706,10669.635200,470.719200,0.000000
366.176012,9728.196800,706.078800,-392.266000
366.176318,10042.009600,706.078800,-313.812800
366.176623,10277.369200,706.078800,-941.438400
366.176929,9885.103200,470.719200,-1019.891600
366.177234,10512.728800,313.812800,-1019.891600
366.177540,10198.916000,0.000000,-941.438400
366.177845,10198.916000,627.625600,-1176.798000
366.178151,10355.822400,470.719200,-1176.798000
366.178457,9963.556400,862.985200,-1333.704400
366.178762,10983.448000,941.438400,-1255.251200
366.179068,10277.369200,1098.344800,-1098.344800
366.179373,10277.369200,1333.704400,-1019.891600
366.179679,11061.901200,1255.251200,-1019.891600
366.179985,10748.088400,1412.157600,-1019.891600
366.180290,8943.664800,1725.970400,-2588.955600
366.180596,11846.433200,1255.251200,-392.266000
366.180901,10042.009600,2039.783200,-1019.891600
366.181207,9414.384000,2196.689600,-1333.704400
366.181512,10591.182000,1804.423600,-1019.891600
366.181818,10042.009600,2118.236400,-784.532000
366.182124,10277.369200,2353.596000,-706.078800
366.182429,10120.462800,2824.315200,-1019.891600
366.182735,10355.822400,3138.128000,-1255.251200
366.183040,10042.009600,2745.862000,-1019.891600
366.183346,9885.103200,2824.315200,-1098.344800
366.183651,9806.650000,2588.955600,-627.625600
366.183957,10120.462800,2981.221600,-941.438400
366.184263,9885.103200,3295.034400,-1176.798000
366.184568,9728.196800,2824.315200,-1019.891600
366.184874,9728.196800,3216.581200,-1098.344800
366.185179,9885.103200,3216.581200,-706.078800
366.185485,9885.103200,2824.315200,-862.985200
366.185791,10042.009600,3295.034400,-627.625600
366.186096,11532.620400,5570.177200,-1569.064000
366.186402,10983.448000,2118.236400,0.000000
366.186707,9414.384000,2510.502400,-235.359600
366.187013,10826.541600,2588.955600,-392.266000
366.187318,10434.275600,2667.408800,-627.625600
366.187624,9806.650000,2745.862000,-706.078800
366.187930,10277.369200,2667.408800,-392.266000
366.188235,9885.103200,2353.596000,-706.078800
366.188541,10120.462800,1804.423600,-313.812800
366.188846,10120.462800,1569.064000,-156.906400
366.189152,9649.743600,2196.689600,-235.359600
366.189457,10198.916000,2039.783200,-313.812800
366.189763,9806.650000,1647.517200,0.000000
366.190069,9963.556400,1098.344800,-549.172400
366.190374,9963.556400,1176.798000,0.000000
366.190680,10120.462800,1019.891600,313.812800
366.190985,10512.728800,784.532000,235.359600
366.191291,10277.369200,549.172400,313.812800
366.191597,10355.822400,549.172400,627.625600
366.191902,10355.822400,706.078800,235.359600
366.192208,10277.369200,706.078800,0.000000
366.192513,10355.822400,313.812800,0.000000
366.192819,9571.290400,-549.172400,235.359600
366.193124,11218.807600,-1098.344800,0.000000
366.193430,9571.290400,-862.985200,0.000000
366.193736,9649.743600,-1176.798000,862.985200
366.194041,10120.462800,-1019.891600,313.812800
366.194347,10120.462800,-1333.704400,235.359600
366.194652,10826.541600,-784.532000,862.985200
366.194958,10277.369200,-784.532000,627.625600
366.195263,10042.009600,-627.625600,235.359600
366.195569,11218.807600,-784.532000,627.625600
366.195875,10120.462800,-1019.891600,470.719200
366.196180,10198.916000,-627.625600,627.625600
366.196486,10198.916000,-1098.344800,470.719200
366.196791,10277.369200,-1569.064000,470.719200
366.197097,10277.369200,-1255.251200,470.719200
366.197403,10042.009600,-1725.970400,392.266000
366.197708,10512.728800,-2039.783200,1333.704400
366.198014,10512.728800,-1255.251200,392.266000
366.198319,10042.009600,-1255.251200,78.453200
366.198625,10042.009600,-1019.891600,313.812800
366.198930,10042.009600,-392.266000,235.359600
366.199236,10355.822400,-549.172400,627.625600
366.199542,9885.103200,-862.985200,862.985200
366.199847,10748.088400,-627.625600,941.438400
366.200153,10042.009600,-1882.876800,706.078800
366.200458,9728.196800,-1098.344800,1019.891600
366.200764,10042.009600,-1333.704400,1412.157600
366.201070,9179.024400,-1490.610800,784.532000
366.201375,9649.743600,-1098.344800,706.078800
366.201681,9885.103200,-1255.251200,549.172400
366.201986,9022.118000,-1019.891600,156.906400
366.202292,9728.196800,-941.438400,156.906400
366.202597,9022.118000,-235.359600,-470.719200
366.202903,9257.477600,-784.532000,-235.359600
366.203209,9649.743600,-1019.891600,235.359600
366.203514,9492.837200,-1569.064000,0.000000
366.203820,9728.196800,-1490.610800,0.000000
366.204125,9335.930800,-862.985200,313.812800
366.204431,9728.196800,-1255.251200,313.812800
366.204736,9492.837200,-1176.798000,78.453200
366.205042,9885.103200,-784.532000,78.453200
366.205348,9649.743600,-1333.704400,-470.719200
366.205653,10042.009600,-1019.891600,-627.625600
366.205959,9649.743600,-1098.344800,-392.266000
366.206264,9414.384000,-1412.157600,0.000000
366.206570,10042.009600,-1255.251200,0.000000
366.206876,9963.556400,-1412.157600,156.906400
366.207181,9963.556400,-1882.876800,235.359600
366.207487,9100.571200,-706.078800,-627.625600
366.207792,10042.009600,-784.532000,0.000000
366.208098,9571.290400,-2039.783200,-706.078800
366.208403,9414.384000,-313.812800,-706.078800
366.208709,10434.275600,-549.172400,-862.985200
366.209015,9649.743600,-2039.783200,-1176.798000
366.209320,8629.852000,-1647.517200,-470.719200
366.209626,10591.182000,-1882.876800,-470.719200
366.209931,9492.837200,-2196.689600,-313.812800
366.210237,9806.650000,-1569.064000,-78.453200
366.210542,11218.807600,-1490.610800,-627.625600
366.210848,9414.384000,-1647.517200,-784.532000
366.211154,10512.728800,-862.985200,-627.625600
366.211459,10042.009600,-862.985200,0.000000
366.211765,10042.009600,-784.532000,-627.625600
366.212070,9649.743600,-862.985200,-392.266000
366.212376,9963.556400,-1490.610800,-549.172400
366.212682,10120.462800,-1255.251200,-392.266000
366.212987,9963.556400,-1019.891600,-470.719200
366.213293,9571.290400,-1098.344800,-313.812800
366.213598,9885.103200,-862.985200,-549.172400
366.213904,9963.556400,-862.985200,-156.906400
366.214209,9728.196800,-706.078800,-470.719200
366.214515,9728.196800,-392.266000,-392.266000
366.214821,9571.290400,-549.172400,-706.078800
366.215126,10120.462800,-784.532000,0.000000
366.215432,9492.837200,-470.719200,-235.359600
366.215737,9571.290400,-706.078800,0.000000
366.216043,10042.009600,-706.078800,235.359600
366.216348,10042.009600,-470.719200,235.359600
366.216654,9885.103200,0.000000,313.812800
366.216960,10277.369200,313.812800,-156.906400
366.217265,9728.196800,313.812800,-470.719200
366.217571,10198.916000,392.266000,0.000000
366.217876,9885.103200,313.812800,0.000000
366.218182,9806.650000,470.719200,-235.359600
366.218488,10120.462800,1333.704400,-706.078800
366.218793,10042.009600,470.719200,0.000000
366.219099,9728.196800,470.719200,0.000000
366.219404,10198.916000,549.172400,235.359600
366.219710,9728.196800,941.438400,156.906400
366.220015,9806.650000,941.438400,627.625600
366.220321,9728.196800,1412.157600,549.172400
366.220627,9885.103200,1333.704400,549.172400
366.220932,10277.369200,1412.157600,235.359600
366.221238,9571.290400,1333.704400,156.906400
366.221543,9728.196800,2510.502400,-313.812800
366.221849,11297.260800,2275.142800,627.625600
366.222154,9335.930800,1176.798000,627.625600
366.222460,9963.556400,1255.251200,1019.891600
366.222766,10355.822400,1412.157600,862.985200
366.223071,9806.650000,1333.704400,1176.798000
366.223377,9728.196800,1804.423600,627.625600
366.223682,9806.650000,1882.876800,313.812800
366.223988,9963.556400,1647.517200,313.812800
366.224294,9649.743600,1725.970400,235.359600
366.224599,9885.103200,1725.970400,706.078800
366.224905,10198.916000,1490.610800,784.532000
366.225210,9963.556400,1412.157600,470.719200
366.225516,9571.290400,1176.798000,706.078800
366.225821,10042.009600,1569.064000,941.438400
366.226127,10042.009600,1569.064000,706.078800
366.226433,10669.635200,2196.689600,862.985200
366.226738,9806.650000,1569.064000,470.719200
366.227044,9885.103200,1490.610800,549.172400
366.227349,10512.728800,1412.157600,156.906400
366.227655,9885.103200,941.438400,235.359600
366.227961,10355.822400,1569.064000,549.172400
366.228266,10042.009600,392.266000,862.985200
366.228572,9414.384000,706.078800,470.719200
366.228877,10512.728800,1098.344800,627.625600
366.229183,10120.462800,706.078800,-78.453200
366.229488,10904.994800,627.625600,0.000000
366.229794,10355.822400,1098.344800,549.172400
366.230100,10748.088400,470.719200,706.078800
366.230405,10198.916000,1176.798000,313.812800
366.230711,9885.103200,1804.423600,470.719200
366.231016,9963.556400,1176.798000,78.453200
366.231322,10826.541600,1490.610800,235.359600
366.231627,10042.009600,1019.891600,0.000000
366.231933,10042.009600,549.172400,-392.266000
366.232239,9806.650000,627.625600,0.000000
366.232544,10042.009600,706.078800,0.000000
366.232850,10591.182000,941.438400,0.000000
366.233155,10434.275600,862.985200,0.000000
366.233461,10434.275600,706.078800,0.000000
366.233767,10355.822400,1098.344800,0.000000
366.234072,10669.635200,1255.251200,-470.719200
366.234378,10748.088400,1961.330000,-862.985200
366.234683,10198.916000,941.438400,-392.266000
366.234989,9100.571200,1412.157600,-1333.704400
366.235294,11532.620400,549.172400,0.000000
366.235600,9492.837200,549.172400,0.000000
366.235906,9414.384000,392.266000,0.000000
366.236211,10826.541600,313.812800,78.453200
366.236517,10042.009600,0.000000,-313.812800
366.236822,9885.103200,470.719200,-549.172400
366.237128,9963.556400,862.985200,-627.625600
366.237433,9885.103200,1490.610800,-862.985200
366.237739,9806.650000,549.172400,-549.172400
366.238045,9885.103200,862.985200,-549.172400
366.238350,10042.009600,235.359600,-549.172400
366.238656,10277.369200,78.453200,-235.359600
366.238961,10434.275600,78.453200,-784.532000
366.239267,10983.448000,470.719200,78.453200
366.239573,10042.009600,627.625600,0.000000
366.239878,10042.009600,549.172400,-392.266000
366.240184,10042.009600,313.812800,-313.812800
366.240489,10904.994800,549.172400,78.453200
366.240795,10277.369200,78.453200,-313.812800
366.241100,10042.009600,78.453200,0.000000
366.241406,10120.462800,0.000000,-392.266000
366.241712,10120.462800,0.000000,-706.078800
366.242017,10120.462800,313.812800,-235.359600
366.242323,9728.196800,-313.812800,-470.719200
366.242628,10120.462800,0.000000,-549.172400
366.242934,10198.916000,-392.266000,-313.812800
366.243239,9728.196800,-156.906400,-470.719200
366.243545,9963.556400,0.000000,235.359600
366.243851,10198.916000,-235.359600,-706.078800
366.244156,9885.103200,-235.359600,0.000000
366.244462,10512.728800,0.000000,-313.812800
366.244767,9885.103200,-862.985200,0.000000
366.245073,9492.837200,-470.719200,-235.359600
366.245379,10277.369200,-392.266000,0.000000
366.245684,9885.103200,-78.453200,-78.453200
366.245990,10277.369200,-1019.891600,470.719200
366.246295,10120.462800,-1255.251200,0.000000
366.246601,10042.009600,-1255.251200,78.453200
366.246906,9963.556400,-784.532000,-235.359600
366.247212,9414.384000,-313.812800,0.000000
366.247518,9963.556400,-1255.251200,-78.453200
366.247823,9963.556400,-1019.891600,-313.812800
366.248129,9885.103200,-784.532000,0.000000
366.248434,10120.462800,-1176.798000,-392.266000
366.248740,9806.650000,-1725.970400,-313.812800
366.249046,9728.196800,-1804.423600,0.000000
366.249351,9963.556400,-1569.064000,-156.906400
366.249657,9806.650000,-1725.970400,78.453200
366.249962,9649.743600,-1647.517200,0.000000
366.250268,9728.196800,-1255.251200,156.906400
366.250573,10042.009600,-1412.157600,0.000000
366.250879,9492.837200,-1412.157600,0.000000
366.251185,10042.009600,-1098.344800,78.453200
366.251490,9963.556400,-1098.344800,-470.719200
366.251796,10042.009600,-1176.798000,0.000000
366.252101,10120.462800,-862.985200,78.453200
366.252407,9963.556400,-1019.891600,0.000000
366.252712,10198.916000,-862.985200,-313.812800
366.253018,10434.275600,-862.985200,-313.812800
366.253324,9963.556400,-941.438400,0.000000
366.253629,9885.103200,-784.532000,-235.359600
366.253935,10120.462800,-941.438400,-156.906400
366.254240,10042.009600,-784.532000,-313.812800
366.254546,9728.196800,-862.985200,-156.906400
366.254852,10042.009600,-470.719200,0.000000
366.255157,10042.009600,-627.625600,0.000000
366.255463,9571.290400,-706.078800,0.000000
366.255768,9571.290400,-627.625600,-156.906400
366.256074,9571.290400,-784.532000,0.000000
366.256379,10120.462800,-784.532000,235.359600
366.256685,8943.664800,-784.532000,-235.359600
366.256991,9885.103200,-1098.344800,470.719200
366.257296,9335.930800,-1412.157600,470.719200
366.257602,9492.837200,-1412.157600,313.812800
366.257907,10198.916000,-1098.344800,235.359600
366.258213,9335.930800,-392.266000,313.812800
366.258518,9963.556400,0.000000,549.172400
366.258824,9885.103200,156.906400,862.985200
366.259130,9885.103200,-392.266000,392.266000
366.259435,9649.743600,78.453200,235.359600
366.259741,10120.462800,-784.532000,313.812800
366.260046,10042.009600,-235.359600,235.359600
366.260352,9963.556400,-549.172400,156.906400
366.260658,9728.196800,-392.266000,78.453200
366.260963,10355.822400,-313.812800,-549.172400
366.261269,9806.650000,-1176.798000,0.000000
366.261574,10277.369200,0.000000,0.000000
366.261880,10277.369200,0.000000,0.000000
366.262185,10355.822400,0.000000,235.359600
366.262491,9414.384000,78.453200,0.000000
366.262797,10512.728800,-627.625600,-235.359600
366.263102,10042.009600,-235.359600,78.453200
366.263408,10198.916000,0.000000,156.906400
366.263713,10120.462800,-392.266000,-392.266000
366.264019,9335.930800,-549.172400,156.906400
366.264324,10042.009600,-313.812800,-156.906400
366.264630,9649.743600,-78.453200,-235.359600
366.264936,9257.477600,-235.359600,-313.812800
366.265241,10355.822400,0.000000,392.266000
366.265547,9649.743600,627.625600,156.906400
366.265852,9963.556400,0.000000,549.172400
366.266158,10748.088400,235.359600,392.266000
366.266464,10042.009600,-313.812800,706.078800
366.266769,10042.009600,0.000000,235.359600
366.267075,9649.743600,549.172400,235.359600
366.267380,9414.384000,0.000000,235.359600
366.267686,11375.714000,1019.891600,392.266000
366.267991,10983.448000,0.000000,0.000000
366.268297,8629.852000,627.625600,0.000000
366.268603,10748.088400,706.078800,0.000000
366.268908,9728.196800,313.812800,0.000000
366.269214,9649.743600,862.985200,-313.812800
366.269519,10826.541600,784.532000,0.000000
366.269825,9728.196800,549.172400,0.000000
366.270130,10042.009600,1255.251200,-549.172400
366.270436,10512.728800,784.532000,-313.812800
366.270742,10120.462800,627.625600,-313.812800
366.271047,10591.182000,627.625600,0.000000
366.271353,10042.009600,0.000000,0.000000
366.271658,9806.650000,-156.906400,0.000000
366.271964,10355.822400,78.453200,235.359600
366.272270,9806.650000,313.812800,156.906400
366.272575,10434.275600,784.532000,0.000000
366.272881,10042.009600,784.532000,-235.359600
366.273186,10042.009600,235.359600,-392.266000
366.273492,9649.743600,706.078800,-549.172400
366.273797,9728.196800,627.625600,-313.812800
366.274103,9414.384000,549.172400,-156.906400
366.274409,9885.103200,392.266000,-470.719200
366.274714,10277.369200,-235.359600,0.000000
366.275020,9885.103200,235.359600,0.000000
366.275325,9728.196800,470.719200,-235.359600
366.275631,10042.009600,549.172400,156.906400
366.275937,10983.448000,784.532000,0.000000
366.276242,9885.103200,1098.344800,-627.625600
366.276548,10042.009600,1490.610800,-627.625600
366.276853,9963.556400,1255.251200,-313.812800
366.277159,10512.728800,1255.251200,0.000000
366.277464,10355.822400,706.078800,-470.719200
366.277770,10591.182000,78.453200,0.000000
366.278076,10120.462800,-392.266000,0.000000
366.278381,9885.103200,0.000000,0.000000
366.278687,10434.275600,-313.812800,0.000000
366.278992,10042.009600,0.000000,0.000000
366.279298,9963.556400,627.625600,-235.359600
366.279603,9728.196800,706.078800,0.000000
366.279909,10198.916000,862.985200,-156.906400
366.280215,9885.103200,627.625600,-784.532000
366.280520,10120.462800,784.532000,-706.078800
366.280826,9571.290400,392.266000,-784.532000
366.281131,10042.009600,313.812800,-627.625600
366.281437,10042.009600,313.812800,-235.359600
366.281743,9963.556400,-156.906400,0.000000
366.282048,8786.758400,470.719200,-156.906400
366.282354,10277.369200,0.000000,0.000000
366.282659,10120.462800,235.359600,0.000000
366.282965,9100.571200,470.719200,0.000000
366.283270,9963.556400,0.000000,0.000000
366.283576,10198.916000,862.985200,0.000000
366.283882,9649.743600,78.453200,313.812800
366.284187,9806.650000,235.359600,0.000000
366.284493,10277.369200,235.359600,0.000000
366.284798,10355.822400,235.359600,0.000000
366.285104,10434.275600,-235.359600,0.000000
366.285409,9728.196800,78.453200,156.906400
366.285715,10042.009600,0.000000,0.000000
366.286021,10355.822400,78.453200,0.000000
366.286326,9806.650000,313.812800,-627.625600
366.286632,10904.994800,0.000000,0.000000
366.286937,10355.822400,-941.438400,-392.266000
366.287243,9728.196800,0.000000,-235.359600
366.287549,9257.477600,0.000000,-235.359600
366.287854,10042.009600,-235.359600,0.000000
366.288160,9963.556400,-156.906400,0.000000
366.288465,10198.916000,78.453200,0.000000
366.288771,9571.290400,392.266000,-156.906400
366.289076,10355.822400,0.000000,156.906400
366.289382,10042.009600,0.000000,549.172400
366.289688,10198.916000,0.000000,156.906400
366.289993,9728.196800,313.812800,1176.798000
366.290299,9885.103200,78.453200,78.453200
366.290604,10042.009600,0.000000,0.000000
366.290910,9963.556400,-313.812800,0.000000
366.291215,9649.743600,156.906400,0.000000
366.291521,10042.009600,0.000000,0.000000
366.291827,9649.743600,78.453200,-627.625600
366.292132,9414.384000,0.000000,0.000000
366.292438,9728.196800,-549.172400,0.000000
366.292743,9100.571200,-706.078800,-156.906400
366.293049,9885.103200,-784.532000,0.000000
366.293355,9806.650000,-627.625600,0.000000
366.293660,10042.009600,-392.266000,0.000000
366.293966,9885.103200,0.000000,-392.266000
366.294271,9728.196800,-156.906400,-156.906400
366.294577,10042.009600,0.000000,78.453200
366.294882,10355.822400,-235.359600,0.000000
366.295188,9885.103200,-470.719200,156.906400
366.295494,10512.728800,-627.625600,0.000000
366.295799,10042.009600,-784.532000,235.359600
366.296105,10120.462800,-862.985200,706.078800
366.296410,10042.009600,-706.078800,549.172400
366.296716,10198.916000,-470.719200,1098.344800
366.297022,10512.728800,-784.532000,706.078800
366.297327,9963.556400,0.000000,784.532000
366.297633,10277.369200,0.000000,235.359600
366.297938,11061.901200,235.359600,1176.798000
366.298244,9885.103200,-392.266000,0.000000
366.298549,9728.196800,-392.266000,0.000000
366.298855,10355.822400,-706.078800,235.359600
366.299161,9179.024400,-941.438400,0.000000
366.299466,9335.930800,-1255.251200,-392.266000
366.299772,9963.556400,-1333.704400,-78.453200
366.300077,10355.822400,-706.078800,-392.266000
366.300383,9649.743600,235.359600,-1098.344800
366.300688,10277.369200,549.172400,-941.438400
366.300994,8786.758400,549.172400,-706.078800
366.301300,9492.837200,0.000000,-78.453200
366.301605,10042.009600,0.000000,0.000000
366.301911,8786.758400,392.266000,0.000000
366.302216,9885.103200,-549.172400,78.453200
366.302522,10277.369200,78.453200,156.906400
366.302828,9414.384000,-235.359600,78.453200
366.303133,9885.103200,-235.359600,78.453200
366.303439,10198.916000,470.719200,0.000000
366.303744,10512.728800,313.812800,78.453200
366.304050,10669.635200,-392.266000,862.985200
366.304355,10042.009600,862.985200,784.532000
366.304661,9728.196800,156.906400,627.625600
366.304967,10355.822400,470.719200,78.453200
366.305272,10042.009600,78.453200,156.906400
366.305578,9492.837200,156.906400,0.000000
366.305883,9885.103200,392.266000,-392.266000
366.306189,10042.009600,78.453200,0.000000
366.306494,9492.837200,-313.812800,-392.266000
366.306800,9257.477600,-235.359600,-627.625600
366.307106,9728.196800,0.000000,-549.172400
366.307411,9885.103200,156.906400,-706.078800
366.307717,8629.852000,313.812800,-235.359600
366.308022,10120.462800,392.266000,0.000000
366.308328,9728.196800,-156.906400,0.000000
366.308634,9963.556400,156.906400,78.453200
366.308939,10669.635200,0.000000,-235.359600
366.309245,9649.743600,784.532000,392.266000
366.309550,9806.650000,-392.266000,0.000000
366.309856,10042.009600,-156.906400,156.906400
366.310161,10042.009600,-862.985200,0.000000
366.310467,10355.822400,-235.359600,313.812800
366.310773,9728.196800,-470.719200,706.078800
366.311078,10120.462800,-470.719200,470.719200
366.311384,10512.728800,-313.812800,470.719200
366.311689,10042.009600,784.532000,0.000000
366.311995,10512.728800,784.532000,-235.359600
366.312300,10198.916000,392.266000,0.000000
366.312606,10277.369200,156.906400,0.000000
366.312912,10434.275600,392.266000,78.453200
366.313217,10042.009600,0.000000,235.359600
366.313523,9728.196800,0.000000,470.719200
366.313828,10748.088400,0.000000,784.532000
366.314134,9806.650000,706.078800,313.812800
366.314440,10042.009600,1019.891600,0.000000
366.314745,9571.290400,1019.891600,-156.906400
366.315051,10042.009600,1098.344800,-235.359600
366.315356,9885.103200,1176.798000,0.000000
366.315662,9728.196800,470.719200,235.359600
366.315967,10042.009600,941.438400,78.453200
366.316273,9649.743600,470.719200,78.453200
366.316579,9728.196800,0.000000,235.359600
366.316884,10042.009600,627.625600,78.453200
366.317190,10277.369200,470.719200,235.359600
366.317495,9649.743600,784.532000,235.359600
366.317801,9806.650000,784.532000,0.000000
366.318106,9649.743600,941.438400,0.000000
366.318412,10434.275600,549.172400,392.266000
366.318718,9414.384000,1333.704400,862.985200
366.319023,9963.556400,235.359600,392.266000
366.319329,10042.009600,1725.970400,0.000000
366.319634,9806.650000,392.266000,784.532000
366.319940,10983.448000,392.266000,392.266000
366.320246,10042.009600,549.172400,392.266000
366.320551,10120.462800,862.985200,0.000000
366.320857,10042.009600,392.266000,392.266000
366.321162,9257.477600,941.438400,-235.359600
366.321468,9649.743600,706.078800,-313.812800
366.321773,10826.541600,1098.344800,156.906400
366.322079,9885.103200,1333.704400,-235.359600
366.322385,9963.556400,1882.876800,-235.359600
366.322690,10669.635200,1098.344800,-156.906400
366.322996,9885.103200,156.906400,-392.266000
366.323301,10277.369200,-313.812800,706.078800
366.323607,9963.556400,941.438400,0.000000
366.323913,9963.556400,313.812800,-156.906400
366.324218,10042.009600,392.266000,78.453200
366.324524,10277.369200,0.000000,941.438400
366.324829,10042.009600,156.906400,784.532000
366.325135,10120.462800,549.172400,1098.344800
366.325440,9963.556400,862.985200,392.266000
366.325746,10591.182000,627.625600,706.078800
366.326052,10120.462800,1098.344800,627.625600
366.326357,9649.743600,235.359600,470.719200
366.326663,11140.354400,-549.172400,1019.891600
366.326968,10042.009600,0.000000,784.532000
366.327274,10042.009600,-156.906400,941.438400
366.327579,10512.728800,-235.359600,549.172400
366.327885,9885.103200,470.719200,78.453200
366.328191,10277.369200,313.812800,392.266000
366.328496,10512.728800,0.000000,-235.359600
366.328802,9885.103200,392.266000,-470.719200
366.329107,10042.009600,313.812800,-235.359600
366.329413,9728.196800,392.266000,-549.172400
366.329719,9963.556400,0.000000,313.812800
366.330024,10120.462800,0.000000,-549.172400
366.330330,10198.916000,392.266000,0.000000
366.330635,9492.837200,0.000000,-313.812800
366.330941,9963.556400,313.812800,-156.906400
366.331246,10355.822400,-235.359600,-235.359600
366.331552,9885.103200,-156.906400,156.906400
366.331858,10198.916000,0.000000,78.453200
366.332163,9885.103200,0.000000,549.172400
366.332469,10198.916000,549.172400,156.906400
366.332774,9963.556400,156.906400,0.000000
366.333080,10512.728800,470.719200,-235.359600
366.333385,9885.103200,392.266000,0.000000
366.333691,10042.009600,156.906400,-313.812800
366.333997,9649.743600,313.812800,-392.266000
366.334302,10120.462800,-549.172400,0.000000
366.334608,10042.009600,-941.438400,-235.359600
366.334913,10042.009600,-862.985200,78.453200
366.335219,10277.369200,-941.438400,0.000000
366.335525,9885.103200,0.000000,78.453200
366.335830,10042.009600,0.000000,156.906400
366.336136,9649.743600,0.000000,156.906400
366.336441,9963.556400,156.906400,-156.906400
366.336747,9100.571200,-78.453200,-392.266000
366.337052,9414.384000,0.000000,-549.172400
366.337358,9963.556400,0.000000,-1255.251200
366.337664,10512.728800,-862.985200,-78.453200
366.337969,9649.743600,-862.985200,235.359600
366.338275,10042.009600,-1019.891600,0.000000
366.338580,9963.556400,-392.266000,0.000000
366.338886,10120.462800,0.000000,0.000000
366.339191,10277.369200,-156.906400,0.000000
366.339497,9885.103200,0.000000,0.000000
366.339803,9806.650000,-156.906400,-392.266000
366.340108,10120.462800,-627.625600,0.000000
366.340414,9885.103200,-313.812800,-156.906400
366.340719,10042.009600,-627.625600,-313.812800
366.341025,9806.650000,-549.172400,235.359600
366.341331,9963.556400,-313.812800,-313.812800
366.341636,10120.462800,-941.438400,0.000000
366.341942,9806.650000,-941.438400,0.000000
366.342247,10198.916000,-784.532000,0.000000
366.342553,9728.196800,-549.172400,0.000000
366.342858,11140.354400,313.812800,0.000000
366.343164,9257.477600,-470.719200,-627.625600
366.343470,9414.384000,-627.625600,-156.906400
366.343775,10042.009600,-784.532000,156.906400
366.344081,9100.571200,-627.625600,-627.625600
366.344386,10198.916000,-784.532000,-627.625600
366.344692,8159.132800,-1176.798000,-706.078800
366.344998,10748.088400,-784.532000,-1255.251200
366.345303,10748.088400,-470.719200,-1333.704400
366.345609,8786.758400,235.359600,-1255.251200
366.345914,8786.758400,-1255.251200,-549.172400
366.346220,9885.103200,-2432.049200,-706.078800
366.346525,11218.807600,-1333.704400,0.000000
366.346831,9335.930800,-1019.891600,78.453200
366.347137,9571.290400,-1098.344800,-862.985200
366.347442,10591.182000,0.000000,-941.438400
366.347748,11061.901200,-1019.891600,-627.625600
366.348053,10120.462800,-313.812800,-470.719200
366.348359,9806.650000,-627.625600,-549.172400
366.348664,10512.728800,-862.985200,-313.812800
366.348970,10042.009600,-1412.157600,-706.078800
366.349276,9571.290400,-1882.876800,235.359600
366.349581,10120.462800,-1490.610800,78.453200
366.349887,9963.556400,-1333.704400,78.453200
366.350192,10042.009600,-941.438400,-392.266000
366.350498,10198.916000,0.000000,0.000000
366.350804,10042.009600,-1176.798000,-392.266000
366.351109,9963.556400,-1019.891600,0.000000
366.351415,9100.571200,-1019.891600,-156.906400
366.351720,10512.728800,-156.906400,0.000000
366.352026,9885.103200,-156.906400,156.906400
366.352331,9885.103200,0.000000,78.453200
366.352637,10591.182000,-941.438400,235.359600
366.352943,9649.743600,-1019.891600,0.000000
366.353248,9806.650000,0.000000,0.000000
366.353554,9885.103200,-156.906400,-235.359600
366.353859,9257.477600,0.000000,-627.625600
366.354165,10120.462800,-78.453200,-1019.891600
366.354470,9492.837200,0.000000,0.000000
366.354776,11218.807600,-392.266000,470.719200
366.355082,9179.024400,549.172400,78.453200
366.355387,10434.275600,-470.719200,0.000000
366.355693,10042.009600,-313.812800,0.000000
366.355998,8943.664800,-1098.344800,392.266000
366.356304,8786.758400,0.000000,-156.906400
366.356610,9885.103200,0.000000,0.000000
366.356915,10120.462800,-941.438400,313.812800
366.357221,9179.024400,-470.719200,549.172400
366.357526,9728.196800,-313.812800,235.359600
366.357832,9571.290400,-392.266000,0.000000
366.358137,9414.384000,-313.812800,156.906400
366.358443,10669.635200,470.719200,470.719200
366.358749,11218.807600,1176.798000,627.625600
366.359054,10120.462800,941.438400,470.719200
366.359360,10277.369200,0.000000,470.719200
366.359665,10434.275600,549.172400,627.625600
366.359971,10669.635200,0.000000,862.985200
366.360276,10355.822400,941.438400,627.625600
366.360582,10120.462800,235.359600,549.172400
366.360888,10983.448000,392.266000,470.719200
366.361193,10277.369200,78.453200,78.453200
366.361499,9806.650000,-706.078800,235.359600
366.361804,9806.650000,-706.078800,784.532000
366.362110,10904.994800,-549.172400,1019.891600
366.362416,10042.009600,-1176.798000,941.438400
366.362721,8865.211600,-1333.704400,392.266000
366.363027,11061.901200,0.000000,627.625600
366.363332,10120.462800,627.625600,-470.719200
366.363638,9492.837200,1176.798000,0.000000
366.363943,10434.275600,-470.719200,-235.359600
366.364249,9963.556400,-392.266000,-627.625600
366.364555,9335.930800,-1255.251200,0.000000
366.364860,10042.009600,-706.078800,392.266000
366.365166,9806.650000,-470.719200,313.812800
366.365471,9806.650000,-549.172400,235.359600
366.365777,10512.728800,78.453200,313.812800
366.366082,9963.556400,78.453200,0.000000
366.366388,9649.743600,470.719200,-627.625600
366.366694,10042.009600,235.359600,-706.078800
366.366999,9414.384000,470.719200,-862.985200
366.367305,9649.743600,862.985200,0.000000
366.367610,9492.837200,784.532000,-392.266000
366.367916,10355.822400,235.359600,0.000000
366.368222,9649.743600,627.625600,549.172400
366.368527,10355.822400,470.719200,235.359600
366.368833,10355.822400,392.266000,-156.906400
366.369138,10591.182000,1098.344800,0.000000
366.369444,10434.275600,1725.970400,-392.266000
366.369749,10512.728800,1725.970400,-706.078800
366.370055,10042.009600,1647.517200,-470.719200
366.370361,9963.556400,1019.891600,-706.078800
366.370666,9649.743600,706.078800,-862.985200
366.370972,9728.196800,470.719200,-549.172400
366.371277,10198.916000,862.985200,-784.532000
366.371583,10277.369200,549.172400,-313.812800
366.371889,9335.930800,549.172400,0.000000
366.372194,9492.837200,1412.157600,0.000000
366.372500,9414.384000,1490.610800,-156.906400
366.372805,9649.743600,470.719200,-78.453200
366.373111,9728.196800,1490.610800,-784.532000
366.373416,9100.571200,1019.891600,-78.453200
366.373722,9179.024400,627.625600,-313.812800
366.374028,9728.196800,1804.423600,-862.985200
366.374333,9806.650000,784.532000,0.000000
366.374639,9257.477600,392.266000,0.000000
366.374944,9885.103200,78.453200,0.000000
366.375250,10042.009600,549.172400,-156.906400
366.375555,9649.743600,0.000000,78.453200
366.375861,10042.009600,313.812800,-313.812800
366.376167,11375.714000,1333.704400,-706.078800
366.376472,10355.822400,1333.704400,0.000000
366.376778,10355.822400,1333.704400,-235.359600
366.377083,10434.275600,1176.798000,0.000000
366.377389,10512.728800,627.625600,0.000000
366.377695,9885.103200,-706.078800,78.453200
366.378000,10198.916000,0.000000,0.000000
366.378306,10198.916000,0.000000,0.000000
366.378611,10042.009600,156.906400,0.000000
366.378917,9885.103200,0.000000,-156.906400
366.379222,10042.009600,470.719200,0.000000
366.379528,10198.916000,549.172400,0.000000
366.379834,9963.556400,706.078800,0.000000
366.380139,10120.462800,627.625600,78.453200
366.380445,9571.290400,313.812800,0.000000
366.380750,10042.009600,549.172400,-313.812800
366.381056,10042.009600,78.453200,235.359600
366.381361,9649.743600,313.812800,235.359600
366.381667,9806.650000,0.000000,-392.266000
366.381973,9963.556400,0.000000,-313.812800
366.382278,9963.556400,549.172400,0.000000
366.382584,9257.477600,156.906400,0.000000
366.382889,9649.743600,313.812800,0.000000
366.383195,10120.462800,392.266000,392.266000
366.383501,10042.009600,313.812800,156.906400
366.383806,9963.556400,627.625600,235.359600
366.384112,10277.369200,941.438400,627.625600
366.384417,10355.822400,470.719200,235.359600
366.384723,10042.009600,313.812800,235.359600
366.385028,9885.103200,-235.359600,392.266000
366.385334,9885.103200,-313.812800,235.359600
366.385640,9806.650000,235.359600,549.172400
366.385945,9571.290400,-235.359600,0.000000
366.386251,10042.009600,392.266000,313.812800
366.386556,10042.009600,156.906400,78.453200
366.386862,10198.916000,0.000000,78.453200
366.387167,9257.477600,156.906400,627.625600
366.387473,10277.369200,313.812800,78.453200
366.387779,9963.556400,313.812800,235.359600
366.388084,10042.009600,0.000000,392.266000
366.388390,9885.103200,-706.078800,313.812800
366.388695,9963.556400,0.000000,-549.172400
366.389001,9806.650000,-313.812800,156.906400
366.389307,9571.290400,78.453200,0.000000
366.389612,10198.916000,0.000000,0.000000
366.389918,9571.290400,-313.812800,78.453200
366.390223,10198.916000,-313.812800,0.000000
366.390529,10042.009600,0.000000,313.812800
366.390834,9963.556400,0.000000,-156.906400
366.391140,9649.743600,313.812800,0.000000
366.391446,9414.384000,-235.359600,0.000000
366.391751,9885.103200,0.000000,0.000000
366.392057,9492.837200,-1098.344800,-627.625600
366.392362,10042.009600,-706.078800,470.719200
366.392668,10198.916000,-862.985200,235.359600
366.392973,9806.650000,0.000000,0.000000
366.393279,9806.650000,-313.812800,0.000000
366.393585,10669.635200,-235.359600,941.438400
366.393890,9806.650000,-784.532000,313.812800
366.394196,10120.462800,-156.906400,0.000000
366.394501,10042.009600,0.000000,156.906400
366.394807,9963.556400,-470.719200,392.266000
366.395113,9963.556400,0.000000,392.266000
366.395418,10042.009600,-392.266000,78.453200
366.395724,9414.384000,-156.906400,0.000000
366.396029,9806.650000,-706.078800,0.000000
366.396335,9649.743600,-627.625600,0.000000
366.396640,10042.009600,-784.532000,0.000000
366.396946,9963.556400,-549.172400,-156.906400
366.397252,9257.477600,392.266000,-706.078800
366.397557,10434.275600,-313.812800,-156.906400
366.397863,9414.384000,0.000000,-313.812800
366.398168,10591.182000,0.000000,392.266000
366.398474,8943.664800,0.000000,-862.985200
366.398780,11061.901200,0.000000,156.906400
366.399085,6040.896400,-2039.783200,-549.172400
366.399391,9649.743600,-156.906400,-627.625600
366.399696,11140.354400,78.453200,-627.625600
366.400002,10277.369200,313.812800,78.453200
366.400307,9179.024400,-235.359600,-706.078800
366.400613,10120.462800,-706.078800,-78.453200
366.400919,10826.541600,-627.625600,-235.359600
366.401224,10748.088400,78.453200,0.000000
366.401530,10591.182000,549.172400,-549.172400
366.401835,8865.211600,-706.078800,-392.266000
366.402141,9885.103200,-862.985200,-784.532000
366.402446,8865.211600,-1725.970400,-706.078800
366.402752,10277.369200,-470.719200,0.000000
366.403058,10198.916000,-706.078800,235.359600
366.403363,10277.369200,-627.625600,-313.812800
366.403669,10434.275600,-156.906400,313.812800
366.403974,10434.275600,-1019.891600,470.719200
366.404280,9492.837200,-313.812800,0.000000
366.404586,10042.009600,-235.359600,-156.906400
366.404891,10434.275600,78.453200,-313.812800
366.405197,9728.196800,0.000000,-156.906400
366.405502,10120.462800,-313.812800,0.000000
366.405808,9649.743600,0.000000,-313.812800
366.406113,10434.275600,0.000000,0.000000
366.406419,10120.462800,-549.172400,-313.812800
366.406725,10042.009600,0.000000,0.000000
366.407030,9963.556400,0.000000,0.000000
366.407336,10983.448000,549.172400,0.000000
366.407641,9649.743600,78.453200,-470.719200
366.407947,9728.196800,313.812800,-549.172400
366.408252,10120.462800,313.812800,-78.453200
366.408558,11218.807600,-706.078800,-78.453200
366.408864,10198.916000,1098.344800,-156.906400
366.409169,9022.118000,0.000000,470.719200
366.409475,10198.916000,78.453200,156.906400
366.409780,10748.088400,392.266000,0.000000
366.410086,9728.196800,235.359600,0.000000
366.410392,9649.743600,549.172400,0.000000
366.410697,10591.182000,0.000000,0.000000
366.411003,9806.650000,-156.906400,313.812800
366.411308,9728.196800,706.078800,235.359600
366.411614,9885.103200,0.000000,235.359600
366.411919,9806.650000,0.000000,0.000000
366.412225,10042.009600,0.000000,235.359600
366.412531,9963.556400,1098.344800,470.719200
366.412836,9492.837200,-392.266000,1098.344800
366.413142,9335.930800,-470.719200,392.266000
366.413447,10434.275600,313.812800,470.719200
366.413753,9728.196800,-313.812800,313.812800
366.414058,9022.118000,0.000000,392.266000
366.414364,10355.822400,313.812800,1019.891600
366.414670,9649.743600,-235.359600,0.000000
366.414975,10198.916000,0.000000,235.359600
366.415281,10120.462800,0.000000,156.906400
366.415586,10512.728800,784.532000,392.266000
366.415892,10669.635200,470.719200,1098.344800
366.416198,9649.743600,0.000000,549.172400
366.416503,10042.009600,0.000000,313.812800
366.416809,10120.462800,78.453200,235.359600
366.417114,9885.103200,78.453200,235.359600
366.417420,10042.009600,0.000000,78.453200
366.417725,10277.369200,-392.266000,0.000000
366.418031,10277.369200,0.000000,0.000000
366.418337,9963.556400,0.000000,-235.359600
366.418642,9885.103200,313.812800,-235.359600
366.418948,9806.650000,470.719200,-156.906400
366.419253,10198.916000,313.812800,-235.359600
366.419559,10198.916000,235.359600,0.000000
366.419865,10512.728800,627.625600,78.453200
366.420170,10042.009600,313.812800,0.000000
366.420476,10198.916000,313.812800,0.000000
366.420781,10198.916000,0.000000,235.359600
366.421087,10042.009600,0.000000,235.359600
366.421392,9179.024400,-1961.330000,-156.906400
366.421698,10042.009600,-862.985200,-313.812800
366.422004,9728.196800,-470.719200,0.000000
366.422309,9022.118000,-470.719200,0.000000
366.422615,9806.650000,549.172400,0.000000
366.422920,10277.369200,78.453200,78.453200
366.423226,10042.009600,627.625600,0.000000
366.423531,9806.650000,862.985200,78.453200
366.423837,10355.822400,392.266000,156.906400
366.424143,10277.369200,313.812800,313.812800
366.424448,10355.822400,156.906400,156.906400
366.424754,9885.103200,-549.172400,0.000000
366.425059,9885.103200,0.000000,0.000000
366.425365,9728.196800,0.000000,-156.906400
366.425671,9571.290400,-313.812800,-235.359600
366.425976,10042.009600,78.453200,-549.172400
366.426282,9963.556400,156.906400,-470.719200
366.426587,9885.103200,0.000000,-549.172400
366.426893,10355.822400,0.000000,-1176.798000
366.427198,9257.477600,392.266000,-78.453200
366.427504,10591.182000,-470.719200,-392.266000
366.427810,9963.556400,78.453200,-235.359600
366.428115,10120.462800,235.359600,-78.453200
366.428421,9885.103200,0.000000,-706.078800
366.428726,10042.009600,0.000000,-549.172400
366.429032,10120.462800,-784.532000,-1098.344800
366.429337,8943.664800,-627.625600,-549.172400
366.429643,9885.103200,0.000000,-862.985200
366.429949,9963.556400,156.906400,-392.266000
366.430254,9335.930800,470.719200,-706.078800
366.430560,10042.009600,313.812800,235.359600
366.430865,10042.009600,627.625600,-392.266000
366.431171,10355.822400,313.812800,156.906400
366.431477,9885.103200,78.453200,235.359600
366.431782,9728.196800,-313.812800,78.453200
366.432088,10042.009600,0.000000,0.000000
366.432393,10512.728800,-470.719200,1019.891600
366.432699,9335.930800,156.906400,0.000000
366.433004,10355.822400,-235.359600,0.000000
366.433310,10826.541600,-392.266000,862.985200
366.433616,9649.743600,313.812800,941.438400
366.433921,9963.556400,0.000000,470.719200
366.434227,10277.369200,78.453200,156.906400
366.434532,10042.009600,156.906400,235.359600
366.434838,9414.384000,0.000000,-156.906400
366.435143,10669.635200,313.812800,549.172400
366.435449,10042.009600,78.453200,0.000000
366.435755,9885.103200,-156.906400,-392.266000
366.436060,9885.103200,78.453200,-235.359600
366.436366,9885.103200,0.000000,-549.172400
366.436671,9335.930800,313.812800,-313.812800
366.436977,9649.743600,78.453200,-313.812800
366.437283,9728.196800,0.000000,-470.719200
366.437588,10042.009600,-156.906400,-235.359600
366.437894,10120.462800,156.906400,78.453200
366.438199,10591.182000,784.532000,313.812800
366.438505,9728.196800,706.078800,-235.359600
366.438810,10591.182000,392.266000,156.906400
366.439116,9963.556400,549.172400,-313.812800
366.439422,10120.462800,470.719200,-392.266000
366.439727,10355.822400,549.172400,0.000000
366.440033,10120.462800,235.359600,0.000000
366.440338,9806.650000,78.453200,78.453200
366.440644,10042.009600,78.453200,78.453200
366.440949,9649.743600,78.453200,78.453200
366.441255,9885.103200,0.000000,156.906400
366.441561,9963.556400,470.719200,392.266000
366.441866,9414.384000,470.719200,235.359600
366.442172,9728.196800,156.906400,235.359600
366.442477,10120.462800,0.000000,470.719200
366.442783,9963.556400,706.078800,235.359600
366.443089,10512.728800,0.000000,235.359600
366.443394,10042.009600,-235.359600,78.453200
366.443700,10042.009600,0.000000,0.000000
366.444005,9414.384000,-392.266000,-235.359600
366.444311,9728.196800,0.000000,-313.812800
366.444616,10042.009600,0.000000,784.532000
366.444922,10277.369200,-549.172400,0.000000
366.445228,8786.758400,-78.453200,0.000000
366.445533,10042.009600,-1255.251200,0.000000
366.445839,10434.275600,-470.719200,0.000000
366.446144,10042.009600,470.719200,706.078800
366.446450,10120.462800,78.453200,470.719200
366.446756,10277.369200,-392.266000,0.000000
366.447061,10042.009600,-392.266000,0.000000
366.447367,10042.009600,-862.985200,0.000000
366.447672,10042.009600,-862.985200,0.000000
366.447978,10042.009600,-1176.798000,-235.359600
366.448283,9885.103200,-627.625600,0.000000
366.448589,10042.009600,-235.359600,0.000000
366.448895,10120.462800,-156.906400,0.000000
366.449200,10198.916000,78.453200,0.000000
366.449506,10512.728800,313.812800,706.078800
366.449811,10277.369200,0.000000,313.812800
366.450117,10434.275600,-156.906400,156.906400
366.450422,10277.369200,-313.812800,0.000000
366.450728,10042.009600,-627.625600,0.000000
366.451034,9649.743600,706.078800,78.453200
366.451339,9963.556400,-156.906400,78.453200
366.451645,9571.290400,156.906400,-392.266000
366.451950,10042.009600,-313.812800,-549.172400
366.452256,9885.103200,-235.359600,-235.359600
366.452562,10042.009600,0.000000,-862.985200
366.452867,9885.103200,-156.906400,0.000000
366.453173,9963.556400,0.000000,-313.812800
366.453478,10042.009600,-235.359600,78.453200
366.453784,9728.196800,-235.359600,0.000000
366.454089,9492.837200,-392.266000,235.359600
366.454395,9649.743600,313.812800,0.000000
366.454701,9728.196800,313.812800,78.453200
366.455006,10042.009600,78.453200,0.000000
366.455312,9885.103200,156.906400,0.000000
366.455617,9963.556400,-627.625600,0.000000
366.455923,10198.916000,235.359600,-156.906400
366.456228,10042.009600,0.000000,0.000000
366.456534,10042.009600,0.000000,0.000000
366.456840,10120.462800,-235.359600,78.453200
366.457145,9649.743600,78.453200,78.453200
366.457451,10042.009600,392.266000,0.000000
366.457756,9885.103200,156.906400,-235.359600
366.458062,9179.024400,549.172400,-627.625600
366.458368,11140.354400,-470.719200,235.359600
366.458673,10042.009600,0.000000,549.172400
366.458979,9492.837200,0.000000,-706.078800
366.459284,10434.275600,0.000000,-392.266000
366.459590,10042.009600,-156.906400,-470.719200
366.459895,9571.290400,-549.172400,-627.625600
366.460201,10042.009600,78.453200,-470.719200
366.460507,10277.369200,0.000000,-470.719200
366.460812,10042.009600,-235.359600,0.000000
366.461118,10277.369200,0.000000,549.172400
366.461423,9963.556400,-156.906400,313.812800
366.461729,10120.462800,313.812800,235.359600
366.462034,10120.462800,156.906400,-156.906400
366.462340,9806.650000,235.359600,78.453200
366.462646,10355.822400,549.172400,0.000000
366.462951,9649.743600,0.000000,706.078800
366.463257,11218.807600,-549.172400,0.000000
366.463562,10512.728800,-78.453200,-235.359600
366.463868,9649.743600,235.359600,-313.812800
366.464174,10042.009600,-313.812800,-313.812800
366.464479,9885.103200,156.906400,-156.906400
366.464785,9885.103200,0.000000,0.000000
366.465090,10355.822400,78.453200,470.719200
366.465396,9963.556400,784.532000,78.453200
366.465701,10355.822400,784.532000,156.906400
366.466007,10042.009600,784.532000,0.000000
366.466313,10042.009600,1019.891600,156.906400
366.466618,10042.009600,627.625600,-313.812800
366.466924,9492.837200,392.266000,0.000000
366.467229,10120.462800,392.266000,0.000000
366.467535,9963.556400,235.359600,78.453200
366.467841,9963.556400,313.812800,235.359600
366.468146,10120.462800,549.172400,313.812800
366.468452,12238.699200,2824.315200,-549.172400
366.468757,10042.009600,-549.172400,78.453200
366.469063,9257.477600,392.266000,706.078800
366.469368,10512.728800,235.359600,470.719200
366.469674,10434.275600,549.172400,549.172400
366.469980,10198.916000,0.000000,549.172400
366.470285,9728.196800,78.453200,627.625600
366.470591,9728.196800,392.266000,0.000000
366.470896,9335.930800,78.453200,-235.359600
366.471202,9806.650000,-235.359600,0.000000
366.471507,9335.930800,-235.359600,235.359600
366.471813,9885.103200,0.000000,78.453200
366.472119,9414.384000,-392.266000,0.000000
366.472424,10355.822400,0.000000,156.906400
366.472730,9728.196800,78.453200,156.906400
366.473035,10434.275600,-784.532000,-235.359600
366.473341,10042.009600,156.906400,0.000000
366.473647,10277.369200,0.000000,-156.906400
366.473952,9885.103200,-313.812800,-235.359600
366.474258,9728.196800,-549.172400,-313.812800
366.474563,10042.009600,-549.172400,0.000000
366.474869,10042.009600,-392.266000,-392.266000
366.475174,10277.369200,-549.172400,0.000000
366.475480,9649.743600,-392.266000,0.000000
366.475786,10355.822400,-313.812800,0.000000
366.476091,10277.369200,0.000000,862.985200
366.476397,10042.009600,0.000000,78.453200
366.476702,10042.009600,-156.906400,0.000000
366.477008,10120.462800,0.000000,156.906400
366.477313,9963.556400,78.453200,0.000000
366.477619,10042.009600,0.000000,-156.906400
366.477925,9963.556400,-549.172400,-313.812800
366.478230,9806.650000,0.000000,0.000000
366.478536,9649.743600,0.000000,-313.812800
366.478841,9885.103200,0.000000,-235.359600
366.479147,10042.009600,156.906400,78.453200
366.479453,9885.103200,470.719200,-470.719200
366.479758,10042.009600,0.000000,-156.906400
366.480064,9806.650000,-313.812800,0.000000
366.480369,9806.650000,-156.906400,0.000000
366.480675,9885.103200,-235.359600,0.000000
366.480980,9257.477600,0.000000,235.359600
366.481286,9963.556400,-1255.251200,156.906400
366.481592,10042.009600,-78.453200,-470.719200
366.481897,9885.103200,-470.719200,0.000000
366.482203,9963.556400,-235.359600,-313.812800
366.482508,10042.009600,-235.359600,78.453200
366.482814,10120.462800,-627.625600,0.000000
366.483119,10512.728800,156.906400,313.812800
366.483425,9571.290400,-313.812800,235.359600
366.483731,10277.369200,0.000000,470.719200
366.484036,10198.916000,0.000000,862.985200
366.484342,10512.728800,78.453200,156.906400
366.484647,10042.009600,0.000000,0.000000
366.484953,10120.462800,78.453200,0.000000
366.485259,9885.103200,-313.812800,-392.266000
366.485564,10120.462800,-1412.157600,0.000000
366.485870,9728.196800,-784.532000,0.000000
366.486175,9806.650000,-784.532000,0.000000
366.486481,10042.009600,-627.625600,0.000000
366.486786,9728.196800,0.000000,-235.359600
366.487092,10120.462800,0.000000,-470.719200
366.487398,10198.916000,313.812800,-706.078800
366.487703,9963.556400,392.266000,-313.812800
366.488009,10042.009600,549.172400,156.906400
366.488314,10512.728800,627.625600,0.000000
366.488620,9806.650000,313.812800,0.000000
366.488925,10120.462800,235.359600,-156.906400
366.489231,9963.556400,-392.266000,470.719200
366.489537,9885.103200,78.453200,470.719200
366.489842,10355.822400,0.000000,549.172400
366.490148,9649.743600,0.000000,392.266000
366.490453,9492.837200,313.812800,156.906400
366.490759,9885.103200,392.266000,235.359600
366.491065,9806.650000,1098.344800,0.000000
366.491370,9728.196800,862.985200,0.000000
366.491676,10198.916000,706.078800,156.906400
366.491981,10042.009600,862.985200,470.719200
366.492287,10042.009600,78.453200,0.000000
366.492592,10042.009600,313.812800,0.000000
366.492898,9728.196800,627.625600,0.000000
366.493204,10042.009600,1098.344800,-313.812800
366.493509,10591.182000,1490.610800,0.000000
366.493815,10198.916000,1098.344800,-235.359600
366.494120,9414.384000,549.172400,0.000000
366.494426,8786.758400,235.359600,-784.532000
366.494732,9728.196800,313.812800,549.172400
366.495037,10434.275600,470.719200,156.906400
366.495343,9728.196800,235.359600,0.000000
366.495648,9492.837200,627.625600,-392.266000
366.495954,10277.369200,1019.891600,0.000000
366.496259,9571.290400,313.812800,-549.172400
366.496565,10198.916000,78.453200,-470.719200
366.496871,10042.009600,78.453200,0.000000
366.497176,9571.290400,0.000000,0.000000
366.497482,9963.556400,156.906400,0.000000
366.497787,10198.916000,0.000000,156.906400
366.498093,10120.462800,156.906400,0.000000
366.498398,10277.369200,235.359600,313.812800
366.498704,10355.822400,0.000000,0.000000
366.499010,10042.009600,470.719200,470.719200
366.499315,10042.009600,0.000000,235.359600
366.499621,10120.462800,0.000000,0.000000
366.499926,9100.571200,392.266000,0.000000
366.500232,10042.009600,-392.266000,0.000000
366.500538,9492.837200,-627.625600,78.453200
366.500843,10042.009600,-784.532000,-313.812800
366.501149,10277.369200,-470.719200,-392.266000
366.501454,9571.290400,-706.078800,0.000000
366.501760,9806.650000,-392.266000,-156.906400
366.502065,10042.009600,0.000000,0.000000
366.502371,10042.009600,313.812800,0.000000
366.502677,9728.196800,-313.812800,-627.625600
366.502982,10434.275600,0.000000,-313.812800
366.503288,9728.196800,-862.985200,-392.266000
366.503593,9885.103200,-313.812800,-313.812800
366.503899,10042.009600,-470.719200,-392.266000
366.504204,9885.103200,-549.172400,-392.266000
366.504510,9885.103200,-784.532000,-392.266000
366.504816,9963.556400,-941.438400,-784.532000
366.505121,10042.009600,-627.625600,-313.812800
366.505427,10512.728800,0.000000,0.000000
366.505732,10042.009600,0.000000,0.000000
366.506038,9728.196800,-313.812800,156.906400
366.506344,10277.369200,-235.359600,-1098.344800
366.506649,9885.103200,0.000000,0.000000
366.506955,9885.103200,0.000000,0.000000
366.507260,9728.196800,0.000000,-235.359600
366.507566,10042.009600,0.000000,0.000000
366.507871,9806.650000,0.000000,156.906400
366.508177,9963.556400,0.000000,-156.906400
366.508483,9806.650000,-313.812800,-549.172400
366.508788,10042.009600,-392.266000,-313.812800
366.509094,9414.384000,0.000000,-549.172400
366.509399,10042.009600,0.000000,-392.266000
366.509705,9963.556400,235.359600,-549.172400
366.510010,9649.743600,470.719200,0.000000
366.510316,10512.728800,-392.266000,0.000000
366.510622,10120.462800,0.000000,0.000000
366.510927,10591.182000,0.000000,0.000000
366.511233,10042.009600,-313.812800,-156.906400
366.511538,9885.103200,0.000000,-392.266000
366.511844,10198.916000,-470.719200,-313.812800
366.512150,9885.103200,0.000000,-627.625600
366.512455,10434.275600,-549.172400,0.000000
366.512761,9963.556400,-392.266000,-156.906400
366.513066,10042.009600,-470.719200,0.000000
366.513372,10042.009600,-1176.798000,0.000000
366.513677,10042.009600,-862.985200,470.719200
366.513983,9492.837200,-706.078800,-235.359600
366.514289,10277.369200,0.000000,156.906400
366.514594,10198.916000,0.000000,78.453200
366.514900,10042.009600,-941.438400,-235.359600
366.515205,10120.462800,-627.625600,-313.812800
366.515511,9571.290400,-313.812800,-470.719200
366.515817,9335.930800,-706.078800,-862.985200
366.516122,9649.743600,-470.719200,-549.172400
366.516428,9728.196800,-627.625600,-313.812800
366.516733,10042.009600,-627.625600,862.985200
366.517039,11140.354400,-706.078800,235.359600
366.517344,9728.196800,1490.610800,78.453200
366.517650,10434.275600,392.266000,313.812800
366.517956,10669.635200,235.359600,313.812800
366.518261,10434.275600,862.985200,-1098.344800
366.518567,10512.728800,0.000000,235.359600
366.518872,10277.369200,156.906400,313.812800
366.519178,9963.556400,-549.172400,0.000000
366.519483,9885.103200,-706.078800,0.000000
366.519789,10042.009600,-549.172400,0.000000
366.520095,9492.837200,-470.719200,0.000000
366.520400,10042.009600,235.359600,-941.438400
366.520706,10042.009600,0.000000,78.453200
366.521011,9885.103200,156.906400,627.625600
366.521317,9728.196800,235.359600,706.078800
366.521623,9963.556400,78.453200,706.078800
366.521928,9885.103200,392.266000,627.625600
366.522234,10277.369200,78.453200,235.359600
366.522539,9806.650000,0.000000,0.000000
366.522845,9806.650000,0.000000,156.906400
366.523150,9885.103200,0.000000,0.000000
366.523456,9885.103200,-235.359600,78.453200
366.523762,9963.556400,0.000000,313.812800
366.524067,9728.196800,235.359600,0.000000
366.524373,10120.462800,941.438400,313.812800
366.524678,10434.275600,862.985200,156.906400
366.524984,10042.009600,1333.704400,0.000000
366.525289,10355.822400,784.532000,0.000000
366.525595,10042.009600,784.532000,-235.359600
366.525901,9728.196800,470.719200,-313.812800
366.526206,9806.650000,549.172400,0.000000
366.526512,9885.103200,0.000000,0.000000
366.526817,9649.743600,235.359600,313.812800
366.527123,9728.196800,0.000000,78.453200
366.527429,10042.009600,235.359600,0.000000
366.527734,10591.182000,549.172400,78.453200
366.528040,9649.743600,235.359600,470.719200
366.528345,9963.556400,313.812800,-235.359600
366.528651,9885.103200,235.359600,313.812800
366.528956,9885.103200,156.906400,78.453200
366.529262,9806.650000,156.906400,0.000000
366.529568,10042.009600,78.453200,78.453200
366.529873,9728.196800,156.906400,156.906400
366.530179,9885.103200,0.000000,-156.906400
366.530484,10120.462800,-156.906400,0.000000
366.530790,10042.009600,0.000000,0.000000
366.531095,9963.556400,156.906400,156.906400
366.531401,10042.009600,470.719200,627.625600
366.531707,10277.369200,549.172400,313.812800
366.532012,10042.009600,627.625600,313.812800
366.532318,10042.009600,627.625600,0.000000
366.532623,10120.462800,549.172400,235.359600
366.532929,10277.369200,549.172400,392.266000
366.533235,10120.462800,313.812800,78.453200
366.533540,9728.196800,78.453200,-313.812800
366.533846,9728.196800,0.000000,-392.266000
366.534151,9963.556400,156.906400,-549.172400
366.534457,9963.556400,78.453200,-941.438400
366.534762,10042.009600,0.000000,-627.625600
366.535068,9649.743600,0.000000,-313.812800
366.535374,9728.196800,313.812800,-1176.798000
366.535679,9179.024400,706.078800,549.172400
366.535985,9963.556400,0.000000,-235.359600
366.536290,9257.477600,470.719200,313.812800
366.536596,9728.196800,313.812800,0.000000
366.536901,10042.009600,0.000000,313.812800
366.537207,10042.009600,156.906400,313.812800
366.537513,10669.635200,156.906400,156.906400
366.537818,9649.743600,784.532000,549.172400
366.538124,10355.822400,392.266000,235.359600
366.538429,10277.369200,0.000000,235.359600
366.538735,9492.837200,549.172400,0.000000
366.539041,10198.916000,235.359600,235.359600
366.539346,9728.196800,549.172400,235.359600
366.539652,10042.009600,0.000000,313.812800
366.539957,10277.369200,0.000000,470.719200
366.540263,10042.009600,470.719200,0.000000
366.540568,9885.103200,706.078800,-392.266000
366.540874,10748.088400,0.000000,-627.625600
366.541180,9649.743600,313.812800,-784.532000
366.541485,9728.196800,-156.906400,-549.172400
366.541791,9885.103200,-313.812800,-627.625600
366.542096,9728.196800,0.000000,-313.812800
366.542402,9885.103200,-549.172400,-235.359600
366.542708,10277.369200,0.000000,-235.359600
366.543013,9885.103200,0.000000,0.000000
366.543319,10042.009600,392.266000,0.000000
366.543624,9806.650000,941.438400,-235.359600
366.543930,10120.462800,627.625600,78.453200
366.544235,10120.462800,78.453200,392.266000
366.544541,10042.009600,0.000000,0.000000
366.544847,10512.728800,-235.359600,470.719200
366.545152,10042.009600,-549.172400,156.906400
366.545458,10512.728800,-235.359600,0.000000
366.545763,10669.635200,-549.172400,-156.906400
366.546069,9963.556400,0.000000,156.906400
366.546374,10277.369200,235.359600,78.453200
366.546680,9649.743600,78.453200,156.906400
366.546986,10277.369200,392.266000,156.906400
366.547291,9728.196800,549.172400,0.000000
366.547597,10042.009600,235.359600,-156.906400
366.547902,10042.009600,156.906400,-313.812800
366.548208,9806.650000,78.453200,-470.719200
366.548514,9963.556400,0.000000,-235.359600
366.548819,10277.369200,0.000000,0.000000
366.549125,9963.556400,78.453200,0.000000
366.549430,9335.930800,-156.906400,0.000000
366.549736,9885.103200,392.266000,0.000000
366.550041,9885.103200,549.172400,-156.906400
366.550347,9728.196800,549.172400,0.000000
366.550653,10042.009600,1176.798000,549.172400
366.550958,10355.822400,235.359600,627.625600
366.551264,10042.009600,0.000000,470.719200
366.551569,10434.275600,0.000000,706.078800
366.551875,10042.009600,0.000000,784.532000
366.552180,9806.650000,0.000000,862.985200
366.552486,9806.650000,235.359600,392.266000
366.552792,10512.728800,235.359600,0.000000
366.553097,9885.103200,0.000000,235.359600
366.553403,9963.556400,0.000000,0.000000
366.553708,10042.009600,470.719200,78.453200
366.554014,9963.556400,0.000000,-78.453200
366.554320,10198.916000,0.000000,0.000000
366.554625,9571.290400,0.000000,-392.266000
366.554931,10042.009600,0.000000,0.000000
366.555236,10355.822400,0.000000,78.453200
366.555542,10042.009600,-313.812800,235.359600
366.555847,9649.743600,0.000000,235.359600
366.556153,10277.369200,-392.266000,78.453200
366.556459,10042.009600,-549.172400,78.453200
366.556764,10042.009600,-470.719200,-784.532000
366.557070,9728.196800,-313.812800,0.000000
366.557375,10042.009600,-392.266000,78.453200
366.557681,10277.369200,-392.266000,235.359600
366.557986,10434.275600,0.000000,156.906400
366.558292,10669.635200,-235.359600,392.266000
366.558598,9885.103200,-862.985200,706.078800
366.558903,10198.916000,0.000000,156.906400
366.559209,10042.009600,-156.906400,0.000000
366.559514,10042.009600,0.000000,0.000000
366.559820,10042.009600,0.000000,235.359600
366.560126,9885.103200,0.000000,235.359600
366.560431,10198.916000,0.000000,0.000000
366.560737,10277.369200,-549.172400,0.000000
366.561042,9885.103200,-470.719200,0.000000
366.561348,9963.556400,-235.359600,-235.359600
366.561653,9885.103200,549.172400,-784.532000
366.561959,9492.837200,313.812800,-941.438400
366.562265,9649.743600,-156.906400,-706.078800
366.562570,10042.009600,0.000000,-313.812800
366.562876,9963.556400,-549.172400,0.000000
366.563181,9963.556400,156.906400,156.906400
366.563487,9963.556400,0.000000,-313.812800
366.563792,9649.743600,0.000000,-549.172400
366.564098,10042.009600,78.453200,-313.812800
366.564404,10355.822400,0.000000,0.000000
366.564709,9806.650000,392.266000,-156.906400
366.565015,10042.009600,78.453200,0.000000
366.565320,10120.462800,0.000000,0.000000
366.565626,9806.650000,0.000000,-156.906400
366.565932,10198.916000,78.453200,-156.906400
366.566237,9571.290400,-156.906400,78.453200
366.566543,9963.556400,-235.359600,0.000000
366.566848,9963.556400,0.000000,-313.812800
366.567154,9728.196800,0.000000,-313.812800
366.567459,10434.275600,0.000000,0.000000
366.567765,10042.009600,0.000000,0.000000
366.568071,9571.290400,313.812800,0.000000
366.568376,10042.009600,706.078800,0.000000
366.568682,9963.556400,392.266000,-235.359600
366.568987,10120.462800,1019.891600,-549.172400
366.569293,10120.462800,-549.172400,-627.625600
366.569599,9728.196800,-862.985200,549.172400
366.569904,9806.650000,-862.985200,470.719200
366.570210,10042.009600,-313.812800,-313.812800
366.570515,8629.852000,-392.266000,0.000000
366.570821,10042.009600,78.453200,0.000000
366.571126,9963.556400,-78.453200,-235.359600
366.571432,9885.103200,156.906400,1019.891600
366.571738,10904.994800,235.359600,392.266000
366.572043,9649.743600,941.438400,-156.906400
366.572349,10198.916000,235.359600,156.906400
366.572654,10042.009600,0.000000,-313.812800
366.572960,9335.930800,0.000000,0.000000
366.573265,10355.822400,0.000000,-235.359600
366.573571,10120.462800,235.359600,0.000000
366.573877,9649.743600,549.172400,-392.266000
366.574182,11454.167200,0.000000,235.359600
366.574488,10042.009600,392.266000,-156.906400
366.574793,11218.807600,-235.359600,0.000000
366.575099,10198.916000,78.453200,0.000000
366.575405,9571.290400,313.812800,0.000000
366.575710,9963.556400,0.000000,-235.359600
366.576016,10042.009600,0.000000,470.719200
366.576321,9963.556400,-313.812800,156.906400
366.576627,10355.822400,0.000000,78.453200
366.576932,10042.009600,0.000000,0.000000
366.577238,10042.009600,78.453200,0.000000
366.577544,10277.369200,0.000000,-706.078800
366.577849,9492.837200,235.359600,78.453200
366.578155,10355.822400,313.812800,78.453200
366.578460,9885.103200,156.906400,313.812800
366.578766,9728.196800,0.000000,235.359600
366.579071,9885.103200,-235.359600,235.359600
366.579377,10042.009600,235.359600,-392.266000
366.579683,9885.103200,392.266000,-313.812800
366.579988,10042.009600,549.172400,0.000000
366.580294,9885.103200,156.906400,0.000000
366.580599,10198.916000,78.453200,78.453200
366.580905,10042.009600,627.625600,235.359600
366.581211,9963.556400,392.266000,392.266000
366.581516,10512.728800,235.359600,313.812800
366.581822,9806.650000,0.000000,156.906400
366.582127,10198.916000,0.000000,392.266000
366.582433,10120.462800,235.359600,235.359600
366.582738,9728.196800,0.000000,78.453200
366.583044,9728.196800,1098.344800,-1882.876800
366.583350,10042.009600,-392.266000,1412.157600
366.583655,10591.182000,-235.359600,784.532000
366.583961,10042.009600,392.266000,392.266000
366.584266,9571.290400,0.000000,0.000000
366.584572,10512.728800,235.359600,313.812800
366.584877,9257.477600,78.453200,0.000000
366.585183,10042.009600,313.812800,0.000000
366.585489,10434.275600,235.359600,-156.906400
366.585794,9885.103200,0.000000,78.453200
366.586100,10198.916000,235.359600,78.453200
366.586405,9571.290400,78.453200,0.000000
366.586711,9885.103200,156.906400,-627.625600
366.587017,9885.103200,0.000000,0.000000
366.587322,10512.728800,156.906400,0.000000
366.587628,9963.556400,156.906400,0.000000
366.587933,10042.009600,78.453200,0.000000
366.588239,9806.650000,0.000000,-392.266000
366.588544,10042.009600,-78.453200,0.000000
366.588850,10355.822400,941.438400,-313.812800
366.589156,10120.462800,313.812800,0.000000
366.589461,9414.384000,549.172400,78.453200
366.589767,9728.196800,0.000000,-78.453200
366.590072,10042.009600,235.359600,-862.985200
366.590378,9492.837200,392.266000,-156.906400
366.590684,9728.196800,-392.266000,0.000000
366.590989,9492.837200,0.000000,-156.906400
366.591295,9649.743600,392.266000,0.000000
366.591600,9963.556400,0.000000,0.000000
366.591906,9806.650000,470.719200,0.000000
366.592211,10042.009600,392.266000,0.000000
366.592517,9649.743600,0.000000,-235.359600
366.592823,10042.009600,-235.359600,-156.906400
366.593128,9728.196800,0.000000,-392.266000
366.593434,9806.650000,-156.906400,-392.266000
366.593739,10198.916000,-549.172400,-470.719200
366.594045,10042.009600,-156.906400,0.000000
366.594350,10042.009600,-156.906400,-156.906400
366.594656,9806.650000,0.000000,-313.812800
366.594962,10120.462800,-313.812800,-313.812800
366.595267,10042.009600,235.359600,-862.985200
366.595573,9885.103200,0.000000,-313.812800
366.595878,9885.103200,235.359600,-392.266000
366.596184,10042.009600,-313.812800,-235.359600
366.596490,10434.275600,-235.359600,-156.906400
366.596795,9728.196800,78.453200,470.719200
366.597101,9257.477600,0.000000,78.453200
366.597406,10512.728800,-156.906400,0.000000
366.597712,9963.556400,-235.359600,0.000000
366.598017,9963.556400,313.812800,-627.625600
366.598323,10198.916000,0.000000,0.000000
366.598629,9728.196800,0.000000,392.266000
366.598934,10042.009600,-313.812800,0.000000
366.599240,9571.290400,-235.359600,0.000000
366.599545,9963.556400,-470.719200,0.000000
366.599851,9885.103200,-470.719200,0.000000
366.600156,9335.930800,-392.266000,0.000000
366.600462,10042.009600,-313.812800,-313.812800
366.600768,10277.369200,0.000000,-313.812800
366.601073,9963.556400,0.000000,-156.906400
366.601379,9885.103200,78.453200,-392.266000
366.601684,10042.009600,-313.812800,-706.078800
366.601990,10277.369200,0.000000,-313.812800
366.602296,9963.556400,0.000000,-235.359600
366.602601,9885.103200,0.000000,0.000000
366.602907,10277.369200,470.719200,235.359600
366.603212,10669.635200,313.812800,0.000000
366.603518,10198.916000,0.000000,78.453200
366.603823,10042.009600,470.719200,0.000000
366.604129,10198.916000,470.719200,-235.359600
366.604435,10120.462800,235.359600,0.000000
366.604740,10591.182000,-235.359600,0.000000
366.605046,9257.477600,-235.359600,156.906400
366.605351,9492.837200,0.000000,313.812800
366.605657,10042.009600,-235.359600,313.812800
366.605962,9963.556400,-313.812800,156.906400
366.606268,9571.290400,0.000000,235.359600
366.606574,11218.807600,0.000000,313.812800
366.606879,9414.384000,235.359600,392.266000
366.607185,9806.650000,627.625600,313.812800
366.607490,10042.009600,235.359600,392.266000
366.607796,9728.196800,0.000000,-78.453200
366.608102,10042.009600,78.453200,0.000000
366.608407,9100.571200,-235.359600,0.000000
366.608713,9728.196800,0.000000,-156.906400
366.609018,9885.103200,-156.906400,-156.906400
366.609324,9963.556400,156.906400,0.000000
366.609629,10277.369200,392.266000,392.266000
366.609935,10277.369200,156.906400,313.812800
366.610241,9806.650000,0.000000,235.359600
366.610546,10120.462800,-156.906400,78.453200
366.610852,9963.556400,0.000000,392.266000
366.611157,10042.009600,156.906400,706.078800
366.611463,9885.103200,78.453200,235.359600
366.611768,10042.009600,-313.812800,78.453200
366.612074,10277.369200,-313.812800,313.812800
366.612380,9728.196800,0.000000,313.812800
366.612685,9885.103200,235.359600,0.000000
366.612991,10042.009600,0.000000,0.000000
366.613296,10434.275600,0.000000,156.906400
366.613602,9649.743600,235.359600,313.812800
366.613908,10042.009600,313.812800,156.906400
366.614213,9806.650000,470.719200,0.000000
366.614519,10042.009600,78.453200,313.812800
366.614824,10042.009600,313.812800,-313.812800
366.615130,9806.650000,156.906400,-235.359600
366.615435,9963.556400,0.000000,-392.266000
366.615741,9492.837200,-313.812800,-549.172400
366.616047,9649.743600,0.000000,-549.172400
366.616352,10042.009600,0.000000,-706.078800
366.616658,10355.822400,0.000000,-313.812800
366.616963,9963.556400,156.906400,0.000000
366.617269,10355.822400,235.359600,0.000000
366.617575,9885.103200,0.000000,-235.359600
366.617880,10120.462800,313.812800,-156.906400
366.618186,10277.369200,156.906400,0.000000
366.618491,10198.916000,0.000000,-156.906400
366.618797,10277.369200,0.000000,0.000000
366.619102,9963.556400,-235.359600,235.359600
366.619408,10120.462800,-627.625600,0.000000
366.619714,10198.916000,0.000000,156.906400
366.620019,10120.462800,313.812800,156.906400
366.620325,9963.556400,706.078800,-235.359600
366.620630,10198.916000,549.172400,78.453200
366.620936,9492.837200,1098.344800,-549.172400
366.621241,10042.009600,392.266000,-235.359600
366.621547,9649.743600,313.812800,-392.266000
366.621853,9885.103200,313.812800,-392.266000
366.622158,9257.477600,235.359600,-392.266000
366.622464,9963.556400,313.812800,-392.266000
366.622769,9806.650000,0.000000,-156.906400
366.623075,9806.650000,-313.812800,-235.359600
366.623381,9649.743600,313.812800,0.000000
366.623686,10042.009600,313.812800,78.453200
366.623992,10120.462800,706.078800,0.000000
366.624297,9963.556400,862.985200,0.000000
366.624603,10042.009600,0.000000,-78.453200
366.624908,10277.369200,235.359600,0.000000
366.625214,9257.477600,392.266000,235.359600
366.625520,9963.556400,0.000000,313.812800
366.625825,8237.586000,235.359600,-627.625600
366.626131,10434.275600,-706.078800,706.078800
366.626436,11061.901200,-706.078800,78.453200
366.626742,9571.290400,78.453200,78.453200
366.627047,9963.556400,235.359600,-156.906400
366.627353,10120.462800,3295.034400,-1333.704400
366.627659,12944.778000,1176.798000,313.812800
366.627964,8551.398800,0.000000,78.453200
366.628270,9885.103200,-549.172400,0.000000
366.628575,10983.448000,0.000000,0.000000
366.628881,10277.369200,-470.719200,-470.719200
366.629187,9022.118000,-313.812800,0.000000
366.629492,9806.650000,-156.906400,0.000000
366.629798,10355.822400,-313.812800,78.453200
366.630103,10198.916000,-549.172400,0.000000
366.630409,9492.837200,-313.812800,235.359600
366.630714,10355.822400,-313.812800,392.266000
366.631020,10042.009600,-313.812800,0.000000
366.631326,10198.916000,-156.906400,-313.812800
366.631631,9649.743600,0.000000,-235.359600
366.631937,10042.009600,-392.266000,156.906400
366.632242,10198.916000,-470.719200,-156.906400
366.632548,10198.916000,-784.532000,0.000000
366.632853,10591.182000,-470.719200,-156.906400
366.633159,10042.009600,-627.625600,0.000000
366.633465,10277.369200,0.000000,0.000000
366.633770,10120.462800,-156.906400,0.000000
366.634076,9885.103200,0.000000,0.000000
366.634381,10120.462800,-627.625600,0.000000
366.634687,10042.009600,-549.172400,156.906400
366.634993,10042.009600,-1019.891600,392.266000
366.635298,9728.196800,0.000000,470.719200
366.635604,9963.556400,-784.532000,-313.812800
366.635909,10120.462800,-470.719200,-235.359600
366.636215,9414.384000,392.266000,-392.266000
366.636520,10198.916000,235.359600,-156.906400
366.636826,9963.556400,0.000000,78.453200
366.637132,9885.103200,0.000000,235.359600
366.637437,9179.024400,-156.906400,235.359600
366.637743,10198.916000,156.906400,470.719200
366.638048,9806.650000,0.000000,78.453200
366.638354,9963.556400,235.359600,235.359600
366.638660,9414.384000,1333.704400,-706.078800
366.638965,9806.650000,235.359600,392.266000
366.639271,10355.822400,-313.812800,470.719200
366.639576,9963.556400,0.000000,549.172400
366.639882,10042.009600,0.000000,784.532000
366.640187,10198.916000,235.359600,784.532000
366.640493,10042.009600,392.266000,313.812800
366.640799,9963.556400,627.625600,313.812800
366.641104,9728.196800,862.985200,156.906400
366.641410,9963.556400,392.266000,0.000000
366.641715,10512.728800,235.359600,313.812800
366.642021,10042.009600,235.359600,313.812800
366.642326,10042.009600,0.000000,0.000000
366.642632,10198.916000,1098.344800,-549.172400
366.642938,9179.024400,313.812800,0.000000
366.643243,10042.009600,-392.266000,-156.906400
366.643549,10042.009600,0.000000,-78.453200
366.643854,10198.916000,-627.625600,0.000000
366.644160,9728.196800,-627.625600,0.000000
366.644466,9963.556400,0.000000,235.359600
366.644771,10120.462800,-313.812800,-156.906400
366.645077,10198.916000,156.906400,156.906400
366.645382,9728.196800,-156.906400,0.000000
366.645688,10042.009600,0.000000,0.000000
366.645993,10198.916000,-156.906400,156.906400
366.646299,10198.916000,-941.438400,78.453200
366.646605,9728.196800,-392.266000,0.000000
366.646910,9885.103200,-627.625600,0.000000
366.647216,10042.009600,-313.812800,0.000000
366.647521,9649.743600,-156.906400,78.453200
366.647827,10434.275600,156.906400,78.453200
366.648132,10198.916000,78.453200,235.359600
366.648438,10198.916000,0.000000,-156.906400
366.648744,9963.556400,0.000000,0.000000
366.649049,10042.009600,156.906400,-313.812800
366.649355,9963.556400,0.000000,-627.625600
366.649660,9885.103200,156.906400,-627.625600
366.649966,9885.103200,-235.359600,-549.172400
366.650272,10042.009600,-313.812800,-235.359600
366.650577,10198.916000,-470.719200,0.000000
366.650883,9885.103200,0.000000,-706.078800
366.651188,10042.009600,0.000000,-862.985200
366.651494,10198.916000,-156.906400,392.266000
366.651799,10042.009600,470.719200,-156.906400
366.652105,9414.384000,862.985200,-549.172400
366.652411,10355.822400,862.985200,-313.812800
366.652716,9885.103200,235.359600,78.453200
366.653022,9728.196800,0.000000,-78.453200
366.653327,9414.384000,78.453200,0.000000
366.653633,10277.369200,0.000000,0.000000
366.653938,10042.009600,-156.906400,-156.906400
366.654244,9571.290400,706.078800,0.000000
366.654550,9492.837200,392.266000,-627.625600
366.654855,10042.009600,784.532000,-549.172400
366.655161,10355.822400,549.172400,0.000000
366.655466,9885.103200,706.078800,0.000000
366.655772,10042.009600,313.812800,-235.359600
366.656078,10120.462800,78.453200,-235.359600
366.656383,9885.103200,156.906400,-313.812800
366.656689,9492.837200,0.000000,-313.812800
366.656994,10120.462800,-392.266000,235.359600
366.657300,9963.556400,78.453200,0.000000
366.657605,10120.462800,549.172400,156.906400
366.657911,10042.009600,0.000000,0.000000
366.658217,9963.556400,0.000000,78.453200
366.658522,10434.275600,0.000000,-313.812800
366.658828,9963.556400,78.453200,-156.906400
366.659133,10277.369200,470.719200,862.985200
366.659439,9806.650000,0.000000,78.453200
366.659744,9963.556400,-392.266000,0.000000
366.660050,9806.650000,0.000000,0.000000
366.660356,10355.822400,-235.359600,0.000000
366.660661,10198.916000,-549.172400,0.000000
366.660967,9414.384000,78.453200,-627.625600
366.661272,9335.930800,-941.438400,-549.172400
366.661578,10120.462800,-78.453200,-784.532000
366.661884,9179.024400,-470.719200,862.985200
366.662189,10355.822400,0.000000,156.906400
366.662495,10042.009600,862.985200,-235.359600
366.662800,10198.916000,-313.812800,235.359600
366.663106,10120.462800,0.000000,0.000000
366.663411,9806.650000,156.906400,235.359600
366.663717,10120.462800,470.719200,78.453200
366.664023,10198.916000,156.906400,235.359600
366.664328,10512.728800,78.453200,627.625600
366.664634,10042.009600,0.000000,313.812800
366.664939,10120.462800,235.359600,78.453200
366.665245,10198.916000,313.812800,-156.906400
366.665551,9492.837200,627.625600,156.906400
366.665856,9963.556400,156.906400,78.453200
366.666162,10120.462800,78.453200,235.359600
366.666467,9963.556400,0.000000,235.359600
366.666773,9728.196800,0.000000,470.719200
366.667078,10042.009600,549.172400,156.906400
366.667384,9963.556400,392.266000,0.000000
366.667690,9571.290400,313.812800,-313.812800
366.667995,9728.196800,313.812800,-627.625600
366.668301,9728.196800,235.359600,-313.812800
366.668606,9885.103200,0.000000,0.000000
366.668912,10277.369200,0.000000,-313.812800
366.669217,9885.103200,-706.078800,470.719200
366.669523,10277.369200,-313.812800,392.266000
366.669829,10591.182000,-392.266000,0.000000
366.670134,9571.290400,-156.906400,0.000000
366.670440,10591.182000,392.266000,78.453200
366.670745,9885.103200,392.266000,78.453200
366.671051,10512.728800,-392.266000,392.266000
366.671357,9963.556400,0.000000,549.172400
366.671662,10198.916000,-156.906400,470.719200
366.671968,10042.009600,-392.266000,1098.344800
366.672273,10120.462800,-235.359600,235.359600
366.672579,9649.743600,-313.812800,0.000000
366.672884,9728.196800,0.000000,0.000000
366.673190,10120.462800,-313.812800,0.000000
366.673496,10355.822400,-549.172400,156.906400
366.673801,10120.462800,-549.172400,0.000000
366.674107,10591.182000,-392.266000,-156.906400
366.674412,9963.556400,78.453200,0.000000
366.674718,9571.290400,549.172400,-392.266000
366.675023,9885.103200,784.532000,-627.625600
366.675329,9963.556400,78.453200,-392.266000
366.675635,10042.009600,156.906400,-313.812800
366.675940,9963.556400,78.453200,-313.812800
366.676246,10198.916000,78.453200,78.453200
366.676551,10042.009600,392.266000,0.000000
366.676857,9885.103200,706.078800,-313.812800
366.677163,9649.743600,784.532000,0.000000
366.677468,10120.462800,470.719200,156.906400
366.677774,9885.103200,470.719200,0.000000
366.678079,9963.556400,470.719200,-235.359600
366.678385,10591.182000,470.719200,-156.906400
366.678690,9649.743600,313.812800,549.172400
366.678996,10434.275600,-392.266000,156.906400
366.679302,9492.837200,1255.251200,-313.812800
366.679607,10591.182000,549.172400,0.000000
366.679913,10042.009600,549.172400,235.359600
366.680218,10042.009600,0.000000,-235.359600
366.680524,9885.103200,78.453200,0.000000
366.680829,9885.103200,235.359600,-156.906400
366.681135,10042.009600,392.266000,-235.359600
366.681441,10669.635200,78.453200,78.453200
366.681746,9728.196800,549.172400,-156.906400
366.682052,9728.196800,78.453200,0.000000
366.682357,10277.369200,235.359600,78.453200
366.682663,9806.650000,156.906400,235.359600
366.682969,9963.556400,235.359600,-706.078800
366.683274,9414.384000,0.000000,0.000000
366.683580,10042.009600,-784.532000,0.000000
366.683885,9728.196800,0.000000,0.000000
366.684191,9649.743600,0.000000,0.000000
366.684496,9885.103200,-156.906400,0.000000
366.684802,10512.728800,-706.078800,313.812800
366.685108,10042.009600,0.000000,235.359600
366.685413,10042.009600,0.000000,78.453200
366.685719,10434.275600,0.000000,156.906400
366.686024,9885.103200,0.000000,78.453200
366.686330,10277.369200,0.000000,-235.359600
366.686635,9885.103200,-235.359600,-156.906400
366.686941,10355.822400,-392.266000,313.812800
366.687247,9649.743600,-313.812800,0.000000
366.687552,10355.822400,-313.812800,78.453200
366.687858,10042.009600,-235.359600,470.719200
366.688163,10042.009600,-313.812800,235.359600
366.688469,9571.290400,78.453200,0.000000
366.688775,10198.916000,235.359600,0.000000
366.689080,10434.275600,78.453200,78.453200
366.689386,10042.009600,-235.359600,235.359600
366.689691,10120.462800,235.359600,549.172400
366.689997,10042.009600,0.000000,78.453200
366.690302,10355.822400,156.906400,0.000000
366.690608,9335.930800,235.359600,0.000000
366.690914,9492.837200,0.000000,78.453200
366.691219,9492.837200,0.000000,0.000000
366.691525,10042.009600,-392.266000,156.906400
366.691830,9492.837200,-549.172400,78.453200
366.692136,9963.556400,-392.266000,0.000000
366.692442,10355.822400,-392.266000,0.000000
366.692747,9414.384000,549.172400,0.000000
366.693053,9885.103200,0.000000,78.453200
366.693358,9806.650000,0.000000,235.359600
366.693664,10120.462800,0.000000,549.172400
366.693969,10042.009600,470.719200,392.266000
366.694275,10042.009600,470.719200,78.453200
366.694581,10198.916000,0.000000,0.000000
366.694886,10983.448000,235.359600,78.453200
366.695192,10277.369200,235.359600,0.000000
366.695497,9885.103200,784.532000,-313.812800
366.695803,10042.009600,706.078800,235.359600
366.696108,10120.462800,0.000000,0.000000
366.696414,9963.556400,78.453200,0.000000
366.696720,8786.758400,-235.359600,78.453200
366.697025,9963.556400,0.000000,-549.172400
366.697331,9806.650000,235.359600,-2510.502400
366.697636,8394.492400,78.453200,-706.078800
366.697942,9963.556400,-392.266000,-549.172400
366.698248,10042.009600,-470.719200,0.000000
366.698553,7453.054000,-1961.330000,-78.453200
366.698859,10355.822400,-706.078800,862.985200
366.699164,10355.822400,-1098.344800,78.453200
366.699470,8943.664800,-392.266000,0.000000
366.699775,9492.837200,-235.359600,-235.359600
366.700081,10591.182000,235.359600,0.000000
366.700387,9492.837200,313.812800,0.000000
366.700692,10669.635200,-235.359600,549.172400
366.700998,10277.369200,0.000000,313.812800
366.701303,9963.556400,-470.719200,-313.812800
366.701609,10120.462800,-392.266000,-78.453200
366.701914,9022.118000,-627.625600,-1412.157600
366.702220,10120.462800,-392.266000,-549.172400
366.702526,10512.728800,-862.985200,78.453200
366.702831,9728.196800,0.000000,-156.906400
366.703137,9649.743600,-392.266000,0.000000
366.703442,10983.448000,156.906400,78.453200
366.703748,10042.009600,0.000000,0.000000
366.704054,9885.103200,392.266000,0.000000
366.704359,9571.290400,627.625600,-627.625600
366.704665,10355.822400,313.812800,-313.812800
366.704970,10042.009600,0.000000,-470.719200
366.705276,10355.822400,78.453200,0.000000
366.705581,9963.556400,-392.266000,78.453200
366.705887,9885.103200,-156.906400,-235.359600
366.706193,9885.103200,0.000000,0.000000
366.706498,9963.556400,470.719200,0.000000
366.706804,9728.196800,470.719200,-313.812800
366.707109,10042.009600,784.532000,0.000000
366.707415,10042.009600,941.438400,78.453200
366.707720,10042.009600,862.985200,0.000000
366.708026,9885.103200,235.359600,0.000000
366.708332,10042.009600,470.719200,0.000000
366.708637,10512.728800,78.453200,0.000000
366.708943,9885.103200,313.812800,-156.906400
366.709248,9728.196800,313.812800,78.453200
366.709554,10042.009600,235.359600,0.000000
366.709860,10120.462800,78.453200,156.906400
366.710165,10120.462800,235.359600,78.453200
366.710471,10748.088400,156.906400,235.359600
366.710776,9963.556400,784.532000,235.359600
366.711082,9963.556400,235.359600,235.359600
366.711387,10198.916000,470.719200,0.000000
366.711693,10198.916000,470.719200,78.453200
366.711999,10042.009600,470.719200,0.000000
366.712304,9806.650000,235.359600,0.000000
366.712610,10198.916000,-392.266000,0.000000
366.712915,9571.290400,235.359600,-1490.610800
366.713221,10591.182000,-470.719200,941.438400
366.713527,9728.196800,235.359600,156.906400
366.713832,9414.384000,78.453200,-627.625600
366.714138,9963.556400,392.266000,-235.359600
366.714443,10434.275600,-235.359600,78.453200
366.714749,10198.916000,-706.078800,-78.453200
366.715054,10042.009600,-313.812800,-235.359600
366.715360,10120.462800,-549.172400,0.000000
366.715666,8786.758400,-706.078800,-235.359600
366.715971,9728.196800,-1255.251200,-78.453200
366.716277,9963.556400,-862.985200,0.000000
366.716582,9806.650000,-941.438400,627.625600
366.716888,10120.462800,0.000000,-627.625600
366.717193,10042.009600,-235.359600,470.719200
366.717499,10434.275600,-313.812800,156.906400
366.717805,10355.822400,313.812800,156.906400
366.718110,10277.369200,0.000000,78.453200
366.718416,11061.901200,0.000000,156.906400
366.718721,10355.822400,-392.266000,156.906400
366.719027,10434.275600,-313.812800,0.000000
366.719333,10355.822400,-549.172400,-156.906400
366.719638,10042.009600,-549.172400,-235.359600
366.719944,10669.635200,-392.266000,-784.532000
366.720249,9806.650000,-235.359600,0.000000
366.720555,9728.196800,0.000000,0.000000
366.720860,10120.462800,156.906400,0.000000
366.721166,9806.650000,78.453200,78.453200
366.721472,10355.822400,156.906400,392.266000
366.721777,9885.103200,156.906400,0.000000
366.722083,10277.369200,78.453200,0.000000
366.722388,9649.743600,156.906400,0.000000
366.722694,9649.743600,78.453200,-313.812800
366.722999,10042.009600,78.453200,-156.906400
366.723305,9335.930800,-156.906400,0.000000
366.723611,9649.743600,-862.985200,549.172400
366.723916,9963.556400,-706.078800,549.172400
366.724222,9806.650000,-627.625600,549.172400
366.724527,9885.103200,0.000000,78.453200
366.724833,10669.635200,313.812800,549.172400
366.725139,9649.743600,627.625600,156.906400
366.725444,10120.462800,313.812800,235.359600
366.725750,9335.930800,156.906400,313.812800
366.726055,9885.103200,235.359600,156.906400
366.726361,9649.743600,470.719200,0.000000
366.726666,10042.009600,0.000000,-235.359600
366.726972,9728.196800,-235.359600,0.000000
366.727278,9571.290400,156.906400,156.906400
366.727583,9963.556400,313.812800,0.000000
366.727889,10042.009600,941.438400,235.359600
366.728194,10434.275600,78.453200,0.000000
366.728500,10198.916000,313.812800,0.000000
366.728805,10042.009600,235.359600,0.000000
366.729111,9571.290400,235.359600,0.000000
366.729417,10042.009600,156.906400,313.812800
366.729722,9963.556400,0.000000,235.359600
366.730028,9885.103200,-392.266000,235.359600
366.730333,9257.477600,-549.172400,0.000000
366.730639,9649.743600,-627.625600,-392.266000
366.730945,9728.196800,-313.812800,-156.906400
366.731250,9963.556400,-549.172400,-784.532000
366.731556,9885.103200,-549.172400,-156.906400
366.731861,10042.009600,-392.266000,-156.906400
366.732167,10277.369200,0.000000,-156.906400
366.732472,9885.103200,0.000000,0.000000
366.732778,10512.728800,0.000000,0.000000
366.733084,10042.009600,392.266000,-1176.798000
366.733389,10042.009600,0.000000,-78.453200
366.733695,9963.556400,0.000000,-156.906400
366.734000,10355.822400,862.985200,-392.266000
366.734306,9963.556400,549.172400,-470.719200
366.734611,10277.369200,0.000000,-313.812800
366.734917,10591.182000,156.906400,-392.266000
366.735223,10983.448000,-392.266000,0.000000
366.735528,9414.384000,784.532000,-549.172400
366.735834,10355.822400,78.453200,-392.266000
366.736139,9806.650000,0.000000,-392.266000
366.736445,9571.290400,0.000000,0.000000
366.736751,10748.088400,0.000000,313.812800
366.737056,10042.009600,0.000000,-313.812800
366.737362,10198.916000,-392.266000,470.719200
366.737667,9414.384000,78.453200,0.000000
366.737973,9885.103200,-235.359600,0.000000
366.738278,9571.290400,235.359600,0.000000
366.738584,10042.009600,0.000000,-156.906400
366.738890,9885.103200,0.000000,0.000000
366.739195,9885.103200,0.000000,-156.906400
366.739501,9963.556400,0.000000,-156.906400
366.739806,9963.556400,0.000000,-313.812800
366.740112,9885.103200,0.000000,-235.359600
366.740418,9492.837200,313.812800,0.000000
366.740723,10042.009600,0.000000,0.000000
366.741029,9571.290400,313.812800,0.000000
366.741334,10277.369200,156.906400,0.000000
366.741640,10042.009600,235.359600,0.000000
366.741945,10355.822400,156.906400,0.000000
366.742251,9649.743600,156.906400,0.000000
366.742557,9885.103200,0.000000,0.000000
366.742862,9885.103200,-313.812800,-470.719200
366.743168,10277.369200,0.000000,0.000000
366.743473,9492.837200,0.000000,-470.719200
366.743779,10042.009600,156.906400,78.453200
366.744084,10042.009600,-156.906400,156.906400
366.744390,10512.728800,-313.812800,156.906400
366.744696,10198.916000,0.000000,0.000000
366.745001,10277.369200,0.000000,156.906400
366.745307,10434.275600,235.359600,78.453200
366.745612,10120.462800,549.172400,78.453200
366.745918,10198.916000,0.000000,235.359600
366.746224,10042.009600,235.359600,156.906400
366.746529,10277.369200,-392.266000,78.453200
366.746835,10434.275600,549.172400,313.812800
366.747140,9179.024400,549.172400,549.172400
366.747446,10277.369200,0.000000,-235.359600
366.747751,9571.290400,392.266000,0.000000
366.748057,10904.994800,392.266000,235.359600
366.748363,9963.556400,0.000000,235.359600
366.748668,10042.009600,313.812800,235.359600
366.748974,10042.009600,-156.906400,78.453200
366.749279,10198.916000,-313.812800,235.359600
366.749585,9885.103200,0.000000,470.719200
366.749890,10198.916000,313.812800,-627.625600
366.750196,9649.743600,1255.251200,0.000000
366.750502,10042.009600,235.359600,-549.172400
366.750807,9728.196800,0.000000,-706.078800
366.751113,9885.103200,0.000000,0.000000
366.751418,9414.384000,-78.453200,392.266000
366.751724,9492.837200,-1569.064000,235.359600
366.752030,9414.384000,627.625600,0.000000
366.752335,8943.664800,706.078800,0.000000
366.752641,10042.009600,549.172400,235.359600
366.752946,10355.822400,549.172400,156.906400
366.753252,10120.462800,549.172400,627.625600
366.753557,9885.103200,313.812800,156.906400
366.753863,10042.009600,78.453200,706.078800
366.754169,9885.103200,0.000000,549.172400
366.754474,9728.196800,-392.266000,392.266000
366.754780,9806.650000,-392.266000,0.000000
366.755085,9649.743600,941.438400,-392.266000
366.755391,9492.837200,549.172400,-156.906400
366.755696,8472.945600,862.985200,0.000000
366.756002,10983.448000,0.000000,0.000000
366.756308,9649.743600,0.000000,392.266000
366.756613,10355.822400,0.000000,862.985200
366.756919,10042.009600,0.000000,235.359600
366.757224,10355.822400,0.000000,235.359600
366.757530,10434.275600,0.000000,784.532000
366.757836,9963.556400,0.000000,549.172400
366.758141,10748.088400,-313.812800,706.078800
366.758447,10355.822400,0.000000,313.812800
366.758752,10277.369200,78.453200,392.266000
366.759058,10277.369200,0.000000,627.625600
366.759363,10355.822400,-470.719200,706.078800
366.759669,10355.822400,-313.812800,235.359600
366.759975,10591.182000,0.000000,235.359600
366.760280,9649.743600,0.000000,0.000000
366.760586,9335.930800,-549.172400,-392.266000
366.760891,9728.196800,0.000000,-470.719200
366.761197,9492.837200,0.000000,-235.359600
366.761503,9885.103200,0.000000,-313.812800
366.761808,8943.664800,78.453200,-235.359600
366.762114,9649.743600,0.000000,0.000000
366.762419,9649.743600,0.000000,-392.266000
366.762725,8865.211600,862.985200,-1176.798000
366.763030,10748.088400,-235.359600,313.812800
366.763336,9257.477600,-470.719200,549.172400
366.763642,9806.650000,0.000000,235.359600
366.763947,10434.275600,0.000000,549.172400
366.764253,9728.196800,0.000000,392.266000
366.764558,9963.556400,706.078800,0.000000
366.764864,10748.088400,235.359600,549.172400
366.765169,10042.009600,549.172400,-313.812800
366.765475,10120.462800,235.359600,0.000000
366.765781,9806.650000,78.453200,-313.812800
366.766086,9963.556400,0.000000,0.000000
366.766392,9963.556400,78.453200,0.000000
366.766697,10512.728800,0.000000,-235.359600
366.767003,10042.009600,313.812800,0.000000
366.767309,9728.196800,549.172400,-470.719200
366.767614,9728.196800,862.985200,-784.532000
366.767920,9885.103200,1019.891600,-784.532000
366.768225,10355.822400,313.812800,-235.359600
366.768531,9806.650000,0.000000,-392.266000
366.768836,9963.556400,-78.453200,-313.812800
366.769142,9963.556400,0.000000,-78.453200
366.769448,10748.088400,-706.078800,0.000000
366.769753,10042.009600,862.985200,-156.906400
366.770059,10042.009600,235.359600,-627.625600
366.770364,10042.009600,470.719200,-235.359600
366.770670,10983.448000,470.719200,0.000000
366.770975,10042.009600,-313.812800,0.000000
366.771281,10198.916000,-235.359600,156.906400
366.771587,10198.916000,-549.172400,0.000000
366.771892,10512.728800,1098.344800,-706.078800
366.772198,11532.620400,313.812800,156.906400
366.772503,9649.743600,-470.719200,235.359600
366.772809,10434.275600,-549.172400,235.359600
366.773115,10669.635200,0.000000,-392.266000
366.773420,10198.916000,0.000000,-470.719200
366.773726,9728.196800,-313.812800,-392.266000
366.774031,10042.009600,0.000000,-392.266000
366.774337,9806.650000,0.000000,-549.172400
366.774642,10277.369200,-313.812800,-313.812800
366.774948,10512.728800,-235.359600,0.000000
366.775254,10434.275600,0.000000,78.453200
366.775559,9885.103200,0.000000,0.000000
366.775865,10120.462800,0.000000,-235.359600
366.776170,9571.290400,78.453200,-549.172400
366.776476,9963.556400,549.172400,-1176.798000
366.776781,9728.196800,0.000000,-862.985200
366.777087,9728.196800,156.906400,-392.266000
366.777393,10120.462800,156.906400,392.266000
366.777698,9963.556400,-235.359600,706.078800
366.778004,11218.807600,941.438400,2432.049200
366.778309,10591.182000,-706.078800,1019.891600
366.778615,10591.182000,235.359600,2118.236400
366.778921,9492.837200,0.000000,0.000000
366.779226,10042.009600,470.719200,0.000000
366.779532,9179.024400,0.000000,549.172400
366.779837,9963.556400,0.000000,78.453200
366.780143,9963.556400,0.000000,235.359600
366.780448,9806.650000,0.000000,313.812800
366.780754,9649.743600,0.000000,235.359600
366.781060,9492.837200,0.000000,313.812800
366.781365,9492.837200,235.359600,549.172400
366.781671,9728.196800,156.906400,78.453200
366.781976,9728.196800,-392.266000,313.812800
366.782282,10277.369200,0.000000,313.812800
366.782587,10277.369200,235.359600,0.000000
366.782893,9806.650000,235.359600,0.000000
366.783199,10355.822400,156.906400,0.000000
366.783504,10198.916000,0.000000,235.359600
366.783810,9806.650000,78.453200,156.906400
366.784115,10277.369200,0.000000,941.438400
366.784421,10042.009600,-549.172400,941.438400
366.784727,10198.916000,-470.719200,470.719200
366.785032,10042.009600,-470.719200,392.266000
366.785338,10120.462800,0.000000,-392.266000
366.785643,9885.103200,-235.359600,-313.812800
366.785949,9963.556400,0.000000,-313.812800
366.786254,9649.743600,470.719200,-235.359600
366.786560,10277.369200,0.000000,-156.906400
366.786866,10198.916000,-470.719200,0.000000
366.787171,9571.290400,-549.172400,0.000000
366.787477,10198.916000,-1255.251200,-627.625600
366.787782,9806.650000,-549.172400,-1098.344800
366.788088,10120.462800,0.000000,549.172400
366.788394,9963.556400,-706.078800,-156.906400
366.788699,10120.462800,78.453200,313.812800
366.789005,10042.009600,156.906400,78.453200
366.789310,10434.275600,0.000000,313.812800
366.789616,10277.369200,-235.359600,0.000000
366.789921,9963.556400,156.906400,0.000000
366.790227,10120.462800,156.906400,0.000000
366.790533,10120.462800,470.719200,0.000000
366.790838,9649.743600,470.719200,-156.906400
366.791144,10042.009600,235.359600,0.000000
366.791449,10042.009600,156.906400,0.000000
366.791755,10042.009600,0.000000,0.000000
366.792060,10042.009600,78.453200,0.000000
366.792366,9885.103200,235.359600,-156.906400
366.792672,9414.384000,313.812800,-627.625600
366.792977,9728.196800,470.719200,0.000000
366.793283,9963.556400,549.172400,0.000000
366.793588,9571.290400,470.719200,0.000000
366.793894,9963.556400,627.625600,-235.359600
366.794200,9728.196800,313.812800,-313.812800
366.794505,9963.556400,156.906400,-549.172400
366.794811,9649.743600,0.000000,-392.266000
366.795116,9963.556400,0.000000,-235.359600
366.795422,10042.009600,78.453200,0.000000
366.795727,10042.009600,-313.812800,470.719200
366.796033,12238.699200,1882.876800,0.000000
366.796339,11375.714000,-156.906400,156.906400
366.796644,8629.852000,470.719200,-235.359600
366.796950,10983.448000,392.266000,313.812800
366.797255,10198.916000,549.172400,0.000000
366.797561,10042.009600,392.266000,313.812800
366.797866,10355.822400,0.000000,470.719200
366.798172,10042.009600,0.000000,-235.359600
366.798478,10042.009600,-470.719200,0.000000
366.798783,10198.916000,-392.266000,0.000000
366.799089,9728.196800,-313.812800,-235.359600
366.799394,10355.822400,-313.812800,0.000000
366.799700,9963.556400,-235.359600,78.453200
366.800006,10042.009600,0.000000,235.359600
366.800311,9728.196800,0.000000,156.906400
366.800617,10983.448000,-235.359600,156.906400
366.800922,9571.290400,-156.906400,-470.719200
366.801228,10042.009600,0.000000,0.000000
366.801533,9257.477600,-627.625600,-313.812800
366.801839,9885.103200,-313.812800,-313.812800
366.802145,10042.009600,0.000000,78.453200
366.802450,9728.196800,0.000000,-235.359600
366.802756,9963.556400,-392.266000,-235.359600
366.803061,10277.369200,-156.906400,0.000000
366.803367,10591.182000,-235.359600,156.906400
366.803672,10748.088400,313.812800,156.906400
366.803978,9885.103200,313.812800,78.453200
366.804284,10042.009600,0.000000,156.906400
366.804589,10748.088400,235.359600,313.812800
366.804895,9649.743600,313.812800,627.625600
366.805200,9649.743600,78.453200,0.000000
366.805506,9649.743600,0.000000,392.266000
366.805812,10434.275600,0.000000,0.000000
366.806117,9414.384000,235.359600,78.453200
366.806423,9728.196800,0.000000,156.906400
366.806728,9963.556400,784.532000,-313.812800
366.807034,9885.103200,392.266000,235.359600
366.807339,9414.384000,0.000000,-549.172400
366.807645,12317.152400,-784.532000,-392.266000
366.807951,9022.118000,0.000000,-549.172400
366.808256,9728.196800,-313.812800,-627.625600
366.808562,9963.556400,0.000000,-313.812800
366.808867,9963.556400,0.000000,-784.532000
366.809173,9885.103200,392.266000,-313.812800
366.809479,9022.118000,784.532000,-313.812800
366.809784,10591.182000,0.000000,156.906400
366.810090,10042.009600,549.172400,78.453200
366.810395,10198.916000,0.000000,392.266000
366.810701,10042.009600,313.812800,313.812800
366.811006,10434.275600,627.625600,392.266000
366.811312,10591.182000,0.000000,549.172400
366.811618,10198.916000,-313.812800,862.985200
366.811923,9649.743600,0.000000,706.078800
366.812229,9728.196800,0.000000,0.000000
366.812534,10355.822400,0.000000,0.000000
366.812840,9257.477600,-392.266000,-313.812800
366.813145,10120.462800,0.000000,-392.266000
366.813451,9885.103200,-627.625600,-549.172400
366.813757,9885.103200,706.078800,-627.625600
366.814062,9649.743600,392.266000,-862.985200
366.814368,10120.462800,-392.266000,549.172400
366.814673,9885.103200,-392.266000,0.000000
366.814979,10669.635200,-235.359600,156.906400
366.815285,9571.290400,-470.719200,0.000000
366.815590,10120.462800,156.906400,235.359600
366.815896,9806.650000,0.000000,-235.359600
366.816201,10120.462800,470.719200,0.000000
366.816507,9885.103200,0.000000,0.000000
366.816812,9885.103200,0.000000,0.000000
366.817118,10042.009600,156.906400,470.719200
366.817424,10512.728800,0.000000,627.625600
366.817729,10512.728800,78.453200,627.625600
366.818035,10591.182000,0.000000,862.985200
366.818340,10669.635200,0.000000,1019.891600
366.818646,10042.009600,0.000000,313.812800
366.818951,10120.462800,470.719200,0.000000
366.819257,10042.009600,0.000000,706.078800
366.819563,9885.103200,78.453200,-392.266000
366.819868,10277.369200,-235.359600,235.359600
366.820174,9806.650000,-470.719200,470.719200
366.820479,10042.009600,0.000000,156.906400
366.820785,10042.009600,0.000000,156.906400
366.821091,10042.009600,0.000000,78.453200
366.821396,9728.196800,0.000000,-235.359600
366.821702,10198.916000,78.453200,-235.359600
366.822007,9649.743600,235.359600,-156.906400
366.822313,9963.556400,-156.906400,-235.359600
366.822618,10042.009600,0.000000,0.000000
366.822924,9179.024400,-235.359600,-78.453200
366.823230,9885.103200,0.000000,-235.359600
366.823535,10042.009600,862.985200,-706.078800
366.823841,9728.196800,0.000000,313.812800
366.824146,10198.916000,313.812800,-627.625600
366.824452,10512.728800,941.438400,-78.453200
366.824757,10355.822400,470.719200,0.000000
366.825063,10512.728800,0.000000,78.453200
366.825369,10042.009600,78.453200,78.453200
366.825674,10198.916000,0.000000,470.719200
366.825980,10042.009600,-156.906400,156.906400
366.826285,10198.916000,0.000000,313.812800
366.826591,10042.009600,-313.812800,0.000000
366.826897,9963.556400,-235.359600,0.000000
366.827202,10042.009600,0.000000,-156.906400
366.827508,10198.916000,0.000000,78.453200
366.827813,10120.462800,78.453200,-549.172400
366.828119,10042.009600,78.453200,-706.078800
366.828424,10198.916000,-156.906400,-1412.157600
366.828730,9179.024400,-156.906400,-2196.689600
366.829036,10120.462800,156.906400,-2196.689600
366.829341,9414.384000,-392.266000,-2824.315200
366.829647,9414.384000,-706.078800,-3059.674800
366.829952,9414.384000,-1333.704400,-3216.581200
366.830258,9649.743600,-1804.423600,-2824.315200
366.830563,10042.009600,-1176.798000,-3059.674800
366.830869,9728.196800,-1569.064000,-2510.502400
366.831175,9806.650000,-1804.423600,-2353.596000
366.831480,10042.009600,-1490.610800,-1882.876800
366.831786,10355.822400,-1569.064000,-1961.330000
366.832091,10512.728800,-1412.157600,-2196.689600
366.832397,10042.009600,-706.078800,-2981.221600
366.832703,10198.916000,-1490.610800,-3608.847200
366.833008,9728.196800,-1961.330000,-4001.113200
366.833314,9806.650000,-2432.049200,-4707.192000
366.833619,9571.290400,-2353.596000,-4942.551600
366.833925,9728.196800,-3216.581200,-5491.724000
366.834230,9649.743600,-3216.581200,-5805.536800
366.834536,9571.290400,-3295.034400,-5334.817600
366.834842,9728.196800,-3216.581200,-5021.004800
366.835147,10042.009600,-3059.674800,-4864.098400
366.835453,10120.462800,-2353.596000,-5570.177200
366.835758,9963.556400,-2432.049200,-5491.724000
366.836064,10042.009600,-2510.502400,-5962.443200
366.836370,10042.009600,-2588.955600,-6511.615600
366.836675,9963.556400,-3295.034400,-7217.694400
366.836981,9335.930800,-3530.394000,-7453.054000
366.837286,9022.118000,-4628.738800,-8002.226400
366.837592,8786.758400,-5334.817600,-7845.320000
366.837897,9649.743600,-4785.645200,-7217.694400
366.838203,10042.009600,-5099.458000,-6825.428400
366.838509,9335.930800,-5021.004800,-6354.709200
366.838814,11140.354400,-3765.753600,-6433.162400
366.839120,9649.743600,-3922.660000,-7060.788000
366.839425,10591.182000,-3530.394000,-7296.147600
366.839731,9963.556400,-3451.940800,-7688.413600
366.840036,9414.384000,-5021.004800,-7609.960400
366.840342,9022.118000,-6197.802800,-7531.507200
366.840648,9022.118000,-6982.334800,-7217.694400
366.840953,8159.132800,-6354.709200,-7217.694400
366.841259,9257.477600,-6668.522000,-6590.068800
366.841564,9257.477600,-5727.083600,-6982.334800
366.841870,8786.758400,-6119.349600,-6040.896400
366.842176,9806.650000,-6040.896400,-5491.724000
366.842481,10042.009600,-5727.083600,-5727.083600
366.842787,9179.024400,-5962.443200,-5256.364400
366.843092,9963.556400,-6276.256000,-4864.098400
366.843398,9963.556400,-7453.054000,-4628.738800
366.843703,9571.290400,-7374.600800,-4550.285600
366.844009,9571.290400,-7531.507200,-4236.472800
366.844315,9571.290400,-7531.507200,-4158.019600
366.844620,9492.837200,-7453.054000,-4314.926000
366.844926,9728.196800,-7296.147600,-3765.753600
366.845231,9492.837200,-7217.694400,-3922.660000
366.845537,9414.384000,-6982.334800,-3530.394000
366.845842,9571.290400,-6825.428400,-3059.674800
366.846148,9728.196800,-6982.334800,-2588.955600
366.846454,9885.103200,-6276.256000,-1961.330000
366.846759,9806.650000,-7217.694400,-1961.330000
366.847065,9806.650000,-7060.788000,-1961.330000
366.847370,9728.196800,-6903.881600,-2039.783200
366.847676,9492.837200,-7217.694400,-1882.876800
366.847982,9885.103200,-7766.866800,-1804.423600
366.848287,9571.290400,-6903.881600,-1333.704400
366.848593,9571.290400,-6590.068800,-941.438400
366.848898,9806.650000,-6276.256000,-470.719200
366.849204,10042.009600,-5962.443200,-156.906400
366.849509,10042.009600,-5177.911200,627.625600
366.849815,10042.009600,-4942.551600,313.812800
366.850121,10042.009600,-4864.098400,0.000000
366.850426,10042.009600,-4628.738800,0.000000
366.850732,10042.009600,-4628.738800,0.000000
366.851037,9728.196800,-4236.472800,392.266000
366.851343,9885.103200,-4001.113200,235.359600
366.851648,9806.650000,-4314.926000,392.266000
366.851954,10198.916000,-3687.300400,862.985200
366.852260,10120.462800,-3059.674800,941.438400
366.852565,10434.275600,-2039.783200,1333.704400
366.852871,10355.822400,-1490.610800,1176.798000
366.853176,10277.369200,-1098.344800,1019.891600
366.853482,10198.916000,-1098.344800,1255.251200
366.853788,10042.009600,-470.719200,1176.798000
366.854093,9649.743600,-470.719200,1098.344800
366.854399,10042.009600,-313.812800,1098.344800
366.854704,9806.650000,-470.719200,1569.064000
366.855010,9885.103200,0.000000,1804.423600
366.855315,10042.009600,156.906400,1882.876800
366.855621,10120.462800,862.985200,2353.596000
366.855927,10355.822400,1412.157600,2588.955600
366.856232,10042.009600,1725.970400,2588.955600
366.856538,10198.916000,2118.236400,2745.862000
366.856843,9885.103200,2275.142800,2432.049200
366.857149,9885.103200,2667.408800,2588.955600
366.857454,9885.103200,2196.689600,2275.142800
366.857760,9728.196800,2510.502400,2667.408800
366.858066,9806.650000,2510.502400,2824.315200
366.858371,9885.103200,2510.502400,2902.768400
366.858677,10042.009600,2667.408800,3059.674800
366.858982,9963.556400,3216.581200,3373.487600
366.859288,10355.822400,3608.847200,2510.502400
366.859594,10042.009600,3608.847200,2196.689600
366.859899,10042.009600,4236.472800,2510.502400
366.860205,9963.556400,3765.753600,2118.236400
366.860510,10591.182000,3765.753600,2510.502400
366.860816,10042.009600,4158.019600,1647.517200
366.861121,9806.650000,3138.128000,1961.330000
366.861427,9963.556400,3373.487600,1725.970400
366.861733,10042.009600,3138.128000,1333.704400
366.862038,9963.556400,3295.034400,1255.251200
366.862344,9963.556400,3138.128000,1098.344800
366.862649,9728.196800,3216.581200,706.078800
366.862955,9963.556400,3373.487600,549.172400
366.863261,9806.650000,3373.487600,313.812800
366.863566,10120.462800,3059.674800,313.812800
366.863872,10042.009600,3216.581200,78.453200
366.864177,10120.462800,2118.236400,470.719200
366.864483,10042.009600,2275.142800,235.359600
366.864788,10120.462800,2432.049200,78.453200
366.865094,10042.009600,2039.783200,0.000000
366.865400,9571.290400,2588.955600,-313.812800
366.865705,11061.901200,2353.596000,-392.266000
366.866011,9257.477600,1569.064000,-470.719200
366.866316,11297.260800,2353.596000,-706.078800
366.866622,10826.541600,3138.128000,-862.985200
366.866927,11061.901200,2196.689600,-549.172400
366.867233,10120.462800,1882.876800,-1098.344800
366.867539,11297.260800,1961.330000,-784.532000
366.867844,9728.196800,941.438400,-1019.891600
366.868150,10983.448000,2510.502400,-941.438400
366.868455,10042.009600,1647.517200,-1019.891600
366.868761,10512.728800,1412.157600,-1333.704400
366.869067,10669.635200,2353.596000,-1333.704400
366.869372,10355.822400,2353.596000,-1176.798000
366.869678,9963.556400,2510.502400,-1569.064000
366.869983,10904.994800,2902.768400,-1333.704400
366.870289,9963.556400,1569.064000,-1333.704400
366.870594,10826.541600,2510.502400,-784.532000
366.870900,10042.009600,1725.970400,-706.078800
366.871206,10512.728800,2118.236400,-549.172400
366.871511,10042.009600,2510.502400,-627.625600
366.871817,10277.369200,1961.330000,-784.532000
366.872122,10120.462800,1961.330000,-627.625600
366.872428,10042.009600,2275.142800,-706.078800
366.872733,10277.369200,2353.596000,-706.078800
366.873039,10042.009600,2275.142800,-470.719200
366.873345,10042.009600,2196.689600,0.000000
366.873650,10042.009600,2196.689600,-235.359600
366.873956,9963.556400,2039.783200,0.000000
366.874261,10042.009600,2196.689600,0.000000
366.874567,10042.009600,2118.236400,549.172400
366.874873,10355.822400,2353.596000,313.812800
366.875178,10198.916000,3059.674800,156.906400
366.875484,9885.103200,2353.596000,156.906400
366.875789,10512.728800,2118.236400,235.359600
366.876095,10434.275600,2353.596000,470.719200
366.876400,9963.556400,2039.783200,-235.359600
366.876706,10042.009600,2196.689600,78.453200
366.877012,10591.182000,1019.891600,156.906400
366.877317,9806.650000,1333.704400,392.266000
366.877623,10042.009600,1490.610800,1176.798000
366.877928,11061.901200,1176.798000,627.625600
366.878234,9963.556400,1176.798000,470.719200
366.878539,10120.462800,1098.344800,0.000000
366.878845,10042.009600,1176.798000,470.719200
366.879151,10042.009600,706.078800,78.453200
366.879456,10042.009600,235.359600,0.000000
366.879762,10042.009600,392.266000,313.812800
366.880067,9571.290400,0.000000,392.266000
366.880373,9963.556400,-706.078800,706.078800
366.880679,9806.650000,-549.172400,706.078800
366.880984,9806.650000,-706.078800,392.266000
366.881290,9728.196800,-1176.798000,78.453200
366.881595,9806.650000,-1412.157600,156.906400
366.881901,9728.196800,-1412.157600,78.453200
366.882206,9806.650000,-1647.517200,235.359600
366.882512,10042.009600,-1647.517200,78.453200
366.882818,9649.743600,-1961.330000,313.812800
366.883123,9806.650000,-2118.236400,235.359600
366.883429,10042.009600,-2432.049200,156.906400
366.883734,10042.009600,-2510.502400,392.266000
366.884040,10042.009600,-2588.955600,156.906400
366.884346,10434.275600,-2981.221600,549.172400
366.884651,10042.009600,-2824.315200,470.719200
366.884957,10042.009600,-2824.315200,0.000000
366.885262,10120.462800,-3216.581200,156.906400
366.885568,10198.916000,-3059.674800,235.359600
366.885873,10669.635200,-3138.128000,-235.359600
366.886179,10120.462800,-2824.315200,0.000000
366.886485,10120.462800,-2824.315200,78.453200
366.886790,10042.009600,-2824.315200,0.000000
366.887096,10042.009600,-2745.862000,-235.359600
366.887401,10591.182000,-2510.502400,0.000000
366.887707,10042.009600,-2824.315200,156.906400
366.888012,9963.556400,-2667.408800,0.000000
366.888318,10042.009600,-2432.049200,78.453200
366.888624,10042.009600,-2196.689600,0.000000
366.888929,9963.556400,-2275.142800,0.000000
366.889235,10042.009600,-1490.610800,-392.266000
366.889540,9963.556400,-2039.783200,-235.359600
366.889846,9885.103200,-1490.610800,-156.906400
366.890152,10042.009600,-1019.891600,0.000000
366.890457,9963.556400,-1333.704400,235.359600
366.890763,10355.822400,-862.985200,627.625600
366.891068,9806.650000,-862.985200,392.266000
366.891374,10042.009600,-941.438400,78.453200
366.891679,9806.650000,-549.172400,0.000000
366.891985,9649.743600,0.000000,0.000000
366.892291,9571.290400,-156.906400,627.625600
366.892596,9806.650000,0.000000,0.000000
366.892902,9571.290400,78.453200,78.453200
366.893207,9649.743600,0.000000,235.359600
366.893513,9649.743600,78.453200,235.359600
366.893818,9335.930800,470.719200,156.906400
366.894124,9414.384000,470.719200,78.453200
366.894430,9649.743600,156.906400,0.000000
366.894735,9492.837200,470.719200,0.000000
366.895041,9728.196800,0.000000,-78.453200
366.895346,9885.103200,156.906400,-470.719200
366.895652,9571.290400,627.625600,392.266000
366.895958,9649.743600,78.453200,235.359600
366.896263,9571.290400,627.625600,156.906400
366.896569,9179.024400,627.625600,1176.798000
366.896874,10748.088400,549.172400,-235.359600
366.897180,9728.196800,941.438400,0.000000
366.897485,9492.837200,627.625600,0.000000
366.897791,9728.196800,470.719200,313.812800
366.898097,9885.103200,470.719200,235.359600
366.898402,9806.650000,706.078800,0.000000
366.898708,9806.650000,706.078800,235.359600
366.899013,9885.103200,706.078800,0.000000
366.899319,10042.009600,549.172400,156.906400
366.899624,9963.556400,470.719200,156.906400
366.899930,9885.103200,470.719200,78.453200
366.900236,10042.009600,549.172400,78.453200
366.900541,9963.556400,235.359600,470.719200
366.900847,9885.103200,392.266000,313.812800
366.901152,9806.650000,156.906400,156.906400
366.901458,9885.103200,313.812800,0.000000
366.901764,9963.556400,0.000000,235.359600
366.902069,9963.556400,235.359600,0.000000
366.902375,10042.009600,549.172400,156.906400
366.902680,9885.103200,627.625600,78.453200
366.902986,10042.009600,392.266000,0.000000
366.903291,9963.556400,627.625600,549.172400
366.903597,10042.009600,627.625600,78.453200
366.903903,10120.462800,313.812800,235.359600
366.904208,9963.556400,549.172400,156.906400
366.904514,10120.462800,549.172400,313.812800
366.904819,9963.556400,1176.798000,706.078800
366.905125,10042.009600,941.438400,235.359600
366.905430,9963.556400,941.438400,156.906400
366.905736,10042.009600,862.985200,0.000000
366.906042,10042.009600,862.985200,156.906400
366.906347,10120.462800,1098.344800,78.453200
366.906653,10042.009600,1019.891600,0.000000
366.906958,10042.009600,1176.798000,0.000000
366.907264,10042.009600,941.438400,0.000000
366.907570,10042.009600,1333.704400,156.906400
366.907875,9963.556400,1255.251200,0.000000
366.908181,9806.650000,1569.064000,0.000000
366.908486,9885.103200,1490.610800,0.000000
366.908792,9885.103200,1412.157600,0.000000
366.909097,10042.009600,1255.251200,0.000000
366.909403,9963.556400,1490.610800,313.812800
366.909709,10042.009600,1490.610800,156.906400
366.910014,9963.556400,1412.157600,0.000000
366.910320,9806.650000,1647.517200,-235.359600
366.910625,9885.103200,1333.704400,0.000000
366.910931,9963.556400,1333.704400,0.000000
366.911237,10198.916000,1333.704400,-235.359600
366.911542,10042.009600,1333.704400,0.000000
366.911848,9963.556400,1176.798000,156.906400
366.912153,9963.556400,1098.344800,0.000000
366.912459,10042.009600,941.438400,0.000000
366.912764,10277.369200,1098.344800,-156.906400
366.913070,10120.462800,1569.064000,156.906400
366.913376,10434.275600,1412.157600,0.000000
366.913681,10120.462800,706.078800,-392.266000
366.913987,10120.462800,0.000000,-313.812800
366.914292,10591.182000,470.719200,0.000000
366.914598,9414.384000,941.438400,-392.266000
366.914903,10042.009600,0.000000,-392.266000
366.915209,9885.103200,235.359600,0.000000
366.915515,10042.009600,235.359600,0.000000
366.915820,10120.462800,235.359600,470.719200
366.916126,10120.462800,156.906400,-156.906400
366.916431,10434.275600,0.000000,0.000000
366.916737,10355.822400,0.000000,-235.359600
366.917043,10120.462800,-313.812800,-156.906400
366.917348,10120.462800,-392.266000,78.453200
366.917654,9963.556400,-235.359600,-470.719200
366.917959,10120.462800,-470.719200,-549.172400
366.918265,10198.916000,-627.625600,-470.719200
366.918570,10120.462800,-706.078800,-313.812800
366.918876,10277.369200,-941.438400,0.000000
366.919182,9963.556400,-549.172400,156.906400
366.919487,10120.462800,-784.532000,-392.266000
366.919793,10512.728800,-862.985200,-392.266000
366.920098,10434.275600,-627.625600,-313.812800
366.920404,10277.369200,-862.985200,-392.266000
366.920709,10355.822400,-549.172400,0.000000
366.921015,10198.916000,-784.532000,-313.812800
366.921321,10042.009600,-1019.891600,-549.172400
366.921626,10198.916000,-1176.798000,-392.266000
366.921932,10042.009600,-1176.798000,-392.266000
366.922237,10120.462800,-1176.798000,-706.078800
366.922543,10355.822400,-941.438400,-470.719200
366.922849,10120.462800,-1098.344800,-392.266000
366.923154,10042.009600,-784.532000,-313.812800
