##drops=0,overflows=0,time_per_sample=0.000305663,start_range=0.000057,end_range=0.000029
#time,accel_x,accel_y,accel_z
346.640156,10042.009600,0.000000,0.000000
346.640462,9649.743600,470.719200,-3608.847200
346.640767,9728.196800,549.172400,-4236.472800
346.641073,10042.009600,0.000000,-4471.832400
346.641379,9728.196800,0.000000,-4707.192000
346.641684,9492.837200,0.000000,-5021.004800
346.641990,9649.743600,0.000000,-4707.192000
346.642296,9728.196800,-549.172400,-4079.566400
346.642601,9963.556400,-470.719200,-3765.753600
346.642907,9885.103200,0.000000,-3922.660000
346.643213,9885.103200,156.906400,-4158.019600
346.643518,10042.009600,313.812800,-4079.566400
346.643824,9885.103200,862.985200,-5021.004800
346.644130,10042.009600,941.438400,-5334.817600
346.644435,9728.196800,784.532000,-6040.896400
346.644741,9571.290400,549.172400,-6433.162400
346.645047,10042.009600,156.906400,-6590.068800
346.645352,9492.837200,0.000000,-6668.522000
346.645658,9100.571200,-627.625600,-6197.802800
346.645964,9728.196800,-627.625600,-5099.458000
346.646269,9885.103200,-313.812800,-4864.098400
346.646575,10042.009600,-156.906400,-4628.738800
346.646881,10355.822400,549.172400,-3373.487600
346.647186,10120.462800,941.438400,-4314.926000
346.647492,10042.009600,1098.344800,-4628.738800
346.647798,10277.369200,941.438400,-4628.738800
346.648103,10042.009600,627.625600,-5256.364400
346.648409,9649.743600,862.985200,-6511.615600
346.648715,9571.290400,156.906400,-5883.990000
346.649020,9649.743600,-313.812800,-5648.630400
346.649326,9100.571200,-313.812800,-5491.724000
346.649632,9414.384000,-1019.891600,-4864.098400
346.649937,9806.650000,-862.985200,-4158.019600
346.650243,9885.103200,-706.078800,-3138.128000
346.650549,10042.009600,0.000000,-2902.768400
346.650854,10591.182000,470.719200,-2745.862000
346.651160,10434.275600,941.438400,-2981.221600
346.651466,10355.822400,1019.891600,-2667.408800
346.651771,9806.650000,1098.344800,-3922.660000
346.652077,9806.650000,470.719200,-4550.285600
346.652383,9335.930800,-156.906400,-4942.551600
346.652688,9414.384000,-392.266000,-4942.551600
346.652994,9257.477600,-862.985200,-4393.379200
346.653299,8865.211600,-706.078800,-3138.128000
346.653605,9414.384000,-862.985200,-2432.049200
346.653911,10042.009600,-235.359600,-2510.502400
346.654216,10904.994800,549.172400,-3138.128000
346.654522,10042.009600,1333.704400,-2588.955600
346.654828,10277.369200,627.625600,-2510.502400
346.655133,10042.009600,1569.064000,-2902.768400
346.655439,9571.290400,1019.891600,-3295.034400
346.655745,10120.462800,235.359600,-2981.221600
346.656050,9571.290400,-392.266000,-3216.581200
346.656356,10042.009600,-549.172400,-3530.394000
346.656662,9414.384000,-1255.251200,-3059.674800
346.656967,10434.275600,-1255.251200,-2981.221600
346.657273,9257.477600,-706.078800,-2667.408800
346.657579,10669.635200,156.906400,-1569.064000
346.657884,10042.009600,1098.344800,-1019.891600
346.658190,9885.103200,1569.064000,-470.719200
346.658496,10826.541600,1019.891600,-235.359600
346.658801,10983.448000,627.625600,-470.719200
346.659107,10512.728800,313.812800,-784.532000
346.659413,10042.009600,235.359600,-1255.251200
346.659718,9728.196800,392.266000,-1961.330000
346.660024,9728.196800,-313.812800,-2196.689600
346.660330,9492.837200,-549.172400,-2432.049200
346.660635,9022.118000,-549.172400,-2353.596000
346.660941,9414.384000,-313.812800,-2118.236400
346.661247,9963.556400,313.812800,-1882.876800
346.661552,9179.024400,235.359600,-1019.891600
346.661858,10042.009600,784.532000,-862.985200
346.662164,9885.103200,1490.610800,-784.532000
346.662469,12003.339600,862.985200,392.266000
346.662775,9022.118000,2039.783200,-1647.517200
346.663081,9885.103200,941.438400,-1412.157600
346.663386,10355.822400,235.359600,-1255.251200
346.663692,9179.024400,0.000000,-941.438400
346.663998,9257.477600,0.000000,-1176.798000
346.664303,10826.541600,-470.719200,-156.906400
346.664609,10277.369200,-392.266000,-627.625600
346.664915,10434.275600,-313.812800,0.000000
346.665220,10120.462800,549.172400,-706.078800
346.665526,10748.088400,784.532000,-313.812800
346.665832,10591.182000,784.532000,-470.719200
346.666137,11924.886400,470.719200,549.172400
346.666443,9806.650000,627.625600,-392.266000
346.666749,10512.728800,0.000000,-235.359600
346.667054,10120.462800,0.000000,-156.906400
346.667360,9100.571200,-1019.891600,78.453200
346.667666,10042.009600,-941.438400,-941.438400
346.667971,9963.556400,-627.625600,-1098.344800
346.668277,9257.477600,-549.172400,-1647.517200
346.668583,9728.196800,-392.266000,-1961.330000
346.668888,9885.103200,392.266000,-1882.876800
346.669194,9806.650000,549.172400,-1176.798000
346.669500,9806.650000,0.000000,-1098.344800
346.669805,10042.009600,235.359600,-784.532000
346.670111,10042.009600,78.453200,-627.625600
346.670417,10120.462800,-156.906400,-549.172400
346.670722,10277.369200,-784.532000,235.359600
346.671028,10042.009600,-392.266000,-392.266000
346.671334,9728.196800,-392.266000,-78.453200
346.671639,10277.369200,-1255.251200,-470.719200
346.671945,10669.635200,-235.359600,0.000000
346.672251,9885.103200,156.906400,-78.453200
346.672556,11689.526800,-549.172400,78.453200
346.672862,10826.541600,862.985200,156.906400
346.673168,10434.275600,0.000000,0.000000
346.673473,10042.009600,706.078800,784.532000
346.673779,12944.778000,-470.719200,2902.768400
346.674085,7923.773200,-313.812800,-313.812800
346.674390,9492.837200,862.985200,-1019.891600
346.674696,9649.743600,392.266000,-706.078800
346.675002,9257.477600,235.359600,-1333.704400
346.675307,8943.664800,392.266000,-1019.891600
346.675613,10277.369200,0.000000,-1725.970400
346.675919,9728.196800,-313.812800,-1176.798000
346.676224,9649.743600,-313.812800,-862.985200
346.676530,9100.571200,0.000000,0.000000
346.676836,9885.103200,-392.266000,941.438400
346.677141,9885.103200,235.359600,313.812800
346.677447,9492.837200,549.172400,392.266000
346.677753,10904.994800,392.266000,941.438400
346.678058,10042.009600,1255.251200,78.453200
346.678364,10120.462800,706.078800,0.000000
346.678670,9649.743600,313.812800,-392.266000
346.678975,9649.743600,-156.906400,-706.078800
346.679281,10120.462800,-470.719200,-392.266000
346.679587,9885.103200,-470.719200,235.359600
346.679892,10277.369200,-392.266000,392.266000
346.680198,9649.743600,0.000000,627.625600
346.680503,9806.650000,-235.359600,862.985200
346.680809,10826.541600,862.985200,941.438400
346.681115,10512.728800,941.438400,392.266000
346.681420,8786.758400,1412.157600,-784.532000
346.681726,10198.916000,549.172400,-706.078800
346.682032,9885.103200,78.453200,-1019.891600
346.682337,10198.916000,-156.906400,-156.906400
346.682643,9571.290400,-392.266000,-706.078800
346.682949,10120.462800,-1019.891600,0.000000
346.683254,9963.556400,-1255.251200,78.453200
346.683560,9728.196800,-1412.157600,1019.891600
346.683866,9806.650000,-627.625600,862.985200
346.684171,10198.916000,627.625600,1176.798000
346.684477,9492.837200,470.719200,313.812800
346.684783,10512.728800,235.359600,-862.985200
346.685088,10591.182000,392.266000,-706.078800
346.685394,9649.743600,313.812800,-1569.064000
346.685700,9414.384000,0.000000,-1569.064000
346.686005,9885.103200,-313.812800,-1098.344800
346.686311,10120.462800,-784.532000,-549.172400
346.686617,9100.571200,-1255.251200,78.453200
346.686922,10826.541600,-313.812800,1019.891600
346.687228,10198.916000,0.000000,1412.157600
346.687534,10198.916000,313.812800,1176.798000
346.687839,10512.728800,706.078800,549.172400
346.688145,10983.448000,1019.891600,941.438400
346.688451,9885.103200,470.719200,235.359600
346.688756,9885.103200,549.172400,156.906400
346.689062,10355.822400,235.359600,78.453200
346.689368,10042.009600,-392.266000,549.172400
346.689673,9728.196800,-1176.798000,78.453200
346.689979,10120.462800,-549.172400,313.812800
346.690285,8786.758400,-156.906400,313.812800
346.690590,9728.196800,0.000000,-78.453200
346.690896,9806.650000,156.906400,-549.172400
346.691202,9728.196800,862.985200,-78.453200
346.691507,10591.182000,392.266000,-862.985200
346.691813,9728.196800,941.438400,-706.078800
346.692119,9649.743600,862.985200,-784.532000
346.692424,9963.556400,235.359600,-392.266000
346.692730,9649.743600,-470.719200,-156.906400
346.693036,9885.103200,-627.625600,941.438400
346.693341,10042.009600,-1019.891600,627.625600
346.693647,9649.743600,-392.266000,470.719200
346.693953,9963.556400,156.906400,470.719200
346.694258,9963.556400,549.172400,78.453200
346.694564,10355.822400,392.266000,235.359600
346.694870,10198.916000,941.438400,0.000000
346.695175,10277.369200,862.985200,0.000000
346.695481,10591.182000,313.812800,313.812800
346.695787,10042.009600,-392.266000,470.719200
346.696092,9885.103200,-470.719200,784.532000
346.696398,9963.556400,-1019.891600,706.078800
346.696704,9649.743600,-549.172400,627.625600
346.697009,9885.103200,-313.812800,235.359600
346.697315,10042.009600,-1882.876800,470.719200
346.697621,7845.320000,706.078800,-1019.891600
346.697926,10277.369200,862.985200,-549.172400
346.698232,8943.664800,78.453200,-1412.157600
346.698538,9257.477600,0.000000,-706.078800
346.698843,10277.369200,0.000000,-156.906400
346.699149,10669.635200,0.000000,1333.704400
346.699455,9649.743600,-470.719200,1019.891600
346.699760,10591.182000,-1019.891600,1490.610800
346.700066,9571.290400,156.906400,941.438400
346.700372,10042.009600,78.453200,0.000000
346.700677,10355.822400,0.000000,0.000000
346.700983,9963.556400,235.359600,-392.266000
346.701289,10042.009600,78.453200,-470.719200
346.701594,10042.009600,0.000000,-470.719200
346.701900,10355.822400,156.906400,-313.812800
346.702206,10042.009600,235.359600,392.266000
346.702511,9885.103200,-1176.798000,1019.891600
346.702817,10434.275600,-549.172400,1255.251200
346.703123,10355.822400,0.000000,1176.798000
346.703428,9571.290400,-1569.064000,1098.344800
346.703734,9100.571200,0.000000,156.906400
346.704040,10904.994800,313.812800,-784.532000
346.704345,9492.837200,941.438400,-862.985200
346.704651,9571.290400,941.438400,-1333.704400
346.704957,10434.275600,392.266000,-941.438400
346.705262,10042.009600,0.000000,-392.266000
346.705568,9728.196800,0.000000,78.453200
346.705874,9885.103200,-549.172400,549.172400
346.706179,9335.930800,-1569.064000,941.438400
346.706485,9885.103200,-392.266000,706.078800
346.706791,9728.196800,235.359600,313.812800
346.707096,9963.556400,313.812800,0.000000
346.707402,9257.477600,941.438400,-941.438400
346.707708,10591.182000,2432.049200,-1490.610800
346.708013,8865.211600,1725.970400,-784.532000
346.708319,10669.635200,-313.812800,0.000000
346.708624,9885.103200,-313.812800,-470.719200
346.708930,9963.556400,0.000000,0.000000
346.709236,10042.009600,-1019.891600,156.906400
346.709541,9414.384000,0.000000,862.985200
346.709847,9963.556400,-313.812800,549.172400
346.710153,9963.556400,-313.812800,-156.906400
346.710458,10042.009600,470.719200,-313.812800
346.710764,9963.556400,941.438400,-627.625600
346.711070,10277.369200,706.078800,-627.625600
346.711375,10355.822400,549.172400,-862.985200
346.711681,10591.182000,862.985200,-313.812800
346.711987,10120.462800,0.000000,-549.172400
346.712292,9571.290400,-706.078800,-313.812800
346.712598,9728.196800,-784.532000,0.000000
346.712904,9728.196800,-313.812800,235.359600
346.713209,9492.837200,-706.078800,235.359600
346.713515,10042.009600,-78.453200,235.359600
346.713821,10198.916000,627.625600,-235.359600
346.714126,10198.916000,706.078800,-156.906400
346.714432,10120.462800,941.438400,-549.172400
346.714738,10198.916000,784.532000,-706.078800
346.715043,10277.369200,0.000000,156.906400
346.715349,9649.743600,-392.266000,-235.359600
346.715655,10042.009600,-1019.891600,0.000000
346.715960,9179.024400,-1333.704400,0.000000
346.716266,9335.930800,-392.266000,392.266000
346.716572,9728.196800,-470.719200,549.172400
346.716877,9963.556400,0.000000,235.359600
346.717183,10120.462800,0.000000,470.719200
346.717489,10355.822400,313.812800,235.359600
346.717794,10591.182000,313.812800,627.625600
346.718100,10120.462800,313.812800,0.000000
346.718406,10512.728800,392.266000,549.172400
346.718711,9728.196800,78.453200,392.266000
346.719017,9885.103200,-392.266000,627.625600
346.719323,9649.743600,-470.719200,470.719200
346.719628,10198.916000,-1176.798000,941.438400
346.719934,9649.743600,-392.266000,549.172400
346.720240,10355.822400,470.719200,0.000000
346.720545,10591.182000,0.000000,392.266000
346.720851,9649.743600,1490.610800,0.000000
346.721157,9885.103200,1882.876800,-862.985200
346.721462,10198.916000,941.438400,-235.359600
346.721768,9963.556400,-156.906400,392.266000
346.722074,8786.758400,0.000000,156.906400
346.722379,9963.556400,-706.078800,392.266000
346.722685,9806.650000,-784.532000,862.985200
346.722991,9335.930800,-784.532000,784.532000
346.723296,9649.743600,-156.906400,0.000000
346.723602,9885.103200,78.453200,0.000000
346.723908,9335.930800,470.719200,-941.438400
346.724213,9963.556400,627.625600,-549.172400
346.724519,10591.182000,941.438400,-549.172400
346.724825,10042.009600,156.906400,-549.172400
346.725130,10042.009600,392.266000,-313.812800
346.725436,10355.822400,0.000000,470.719200
346.725742,10042.009600,-706.078800,313.812800
346.726047,9414.384000,-313.812800,78.453200
346.726353,10277.369200,-941.438400,392.266000
346.726659,9885.103200,-78.453200,0.000000
346.726964,9649.743600,-156.906400,1490.610800
346.727270,10669.635200,392.266000,78.453200
346.727576,10748.088400,1490.610800,-235.359600
346.727881,9885.103200,0.000000,-156.906400
346.728187,10042.009600,0.000000,0.000000
346.728493,10277.369200,-235.359600,0.000000
346.728798,9728.196800,-706.078800,78.453200
346.729104,9728.196800,-313.812800,470.719200
346.729410,9728.196800,-392.266000,0.000000
346.729715,9885.103200,-470.719200,0.000000
346.730021,9885.103200,-156.906400,-392.266000
346.730327,9492.837200,156.906400,-862.985200
346.730632,10120.462800,549.172400,-706.078800
346.730938,10434.275600,392.266000,-784.532000
346.731244,10042.009600,78.453200,-784.532000
346.731549,10042.009600,0.000000,-313.812800
346.731855,10120.462800,-706.078800,0.000000
346.732161,10512.728800,-627.625600,627.625600
346.732466,9571.290400,-1176.798000,549.172400
346.732772,10042.009600,0.000000,862.985200
346.733078,10198.916000,0.000000,470.719200
346.733383,9963.556400,0.000000,0.000000
346.733689,10669.635200,1019.891600,-235.359600
346.733995,9963.556400,1176.798000,-784.532000
346.734300,10042.009600,627.625600,-706.078800
346.734606,10120.462800,235.359600,-549.172400
346.734912,10042.009600,-235.359600,-156.906400
346.735217,9571.290400,-235.359600,-313.812800
346.735523,9963.556400,-156.906400,156.906400
346.735829,9492.837200,-156.906400,0.000000
346.736134,10198.916000,392.266000,-313.812800
346.736440,9963.556400,313.812800,-156.906400
346.736745,9963.556400,549.172400,-549.172400
346.737051,10042.009600,784.532000,-549.172400
346.737357,9963.556400,1019.891600,-1019.891600
346.737662,10277.369200,941.438400,-706.078800
346.737968,10042.009600,627.625600,-313.812800
346.738274,9728.196800,-235.359600,-313.812800
346.738579,9963.556400,-470.719200,0.000000
346.738885,9492.837200,-1176.798000,156.906400
346.739191,10042.009600,-549.172400,313.812800
346.739496,9885.103200,0.000000,313.812800
346.739802,9492.837200,235.359600,0.000000
346.740108,10669.635200,313.812800,-235.359600
346.740413,10277.369200,784.532000,-784.532000
346.740719,10355.822400,627.625600,-392.266000
346.741025,10042.009600,235.359600,-627.625600
346.741330,10120.462800,-235.359600,0.000000
346.741636,9885.103200,-470.719200,470.719200
346.741942,9728.196800,-313.812800,549.172400
346.742247,9649.743600,-549.172400,0.000000
346.742553,9885.103200,-156.906400,-235.359600
346.742859,9806.650000,0.000000,-784.532000
346.743164,10042.009600,313.812800,-941.438400
346.743470,10355.822400,549.172400,-862.985200
346.743776,10042.009600,392.266000,-941.438400
346.744081,10042.009600,-392.266000,549.172400
346.744387,9179.024400,-1255.251200,-78.453200
346.744693,11140.354400,-235.359600,-1255.251200
346.744998,8472.945600,313.812800,-156.906400
346.745304,8943.664800,-1098.344800,-313.812800
346.745610,9806.650000,-706.078800,0.000000
346.745915,9728.196800,-470.719200,0.000000
346.746221,10355.822400,-156.906400,235.359600
346.746527,10748.088400,706.078800,313.812800
346.746832,11061.901200,941.438400,-235.359600
346.747138,10120.462800,784.532000,0.000000
346.747444,9571.290400,156.906400,-470.719200
346.747749,9963.556400,-549.172400,392.266000
346.748055,9022.118000,-706.078800,0.000000
346.748361,10277.369200,-549.172400,392.266000
346.748666,9257.477600,-627.625600,0.000000
346.748972,9963.556400,0.000000,235.359600
346.749278,10042.009600,-392.266000,0.000000
346.749583,9492.837200,470.719200,156.906400
346.749889,9257.477600,941.438400,-784.532000
346.750195,9649.743600,1176.798000,-549.172400
346.750500,9728.196800,235.359600,-784.532000
346.750806,9885.103200,0.000000,-235.359600
346.751112,9492.837200,0.000000,-156.906400
346.751417,10042.009600,-313.812800,-706.078800
346.751723,9571.290400,-627.625600,235.359600
346.752029,9806.650000,-156.906400,156.906400
346.752334,10042.009600,-156.906400,549.172400
346.752640,9885.103200,549.172400,0.000000
346.752946,10983.448000,706.078800,1098.344800
346.753251,9571.290400,392.266000,0.000000
346.753557,10591.182000,862.985200,0.000000
346.753863,10355.822400,941.438400,0.000000
346.754168,9649.743600,470.719200,78.453200
346.754474,10198.916000,-392.266000,313.812800
346.754780,10120.462800,-627.625600,862.985200
346.755085,9728.196800,-784.532000,941.438400
346.755391,9414.384000,-784.532000,313.812800
346.755697,9885.103200,0.000000,0.000000
346.756002,9885.103200,941.438400,-392.266000
346.756308,10277.369200,706.078800,-784.532000
346.756614,10434.275600,627.625600,-706.078800
346.756919,9885.103200,549.172400,-235.359600
346.757225,10355.822400,0.000000,0.000000
346.757531,10042.009600,0.000000,392.266000
346.757836,10355.822400,-470.719200,392.266000
346.758142,10120.462800,-784.532000,313.812800
346.758448,9728.196800,-627.625600,235.359600
346.758753,10120.462800,-392.266000,392.266000
346.759059,10042.009600,-392.266000,235.359600
346.759365,9022.118000,0.000000,-549.172400
346.759670,10591.182000,470.719200,0.000000
346.759976,10120.462800,549.172400,-156.906400
346.760282,8786.758400,-1255.251200,156.906400
346.760587,10434.275600,78.453200,-235.359600
346.760893,10277.369200,156.906400,0.000000
346.761199,8237.586000,-627.625600,0.000000
346.761504,9649.743600,0.000000,0.000000
346.761810,9806.650000,0.000000,-78.453200
346.762116,9022.118000,-549.172400,-784.532000
346.762421,10042.009600,549.172400,0.000000
346.762727,9649.743600,784.532000,-78.453200
346.763033,11532.620400,0.000000,-392.266000
346.763338,10042.009600,706.078800,-627.625600
346.763644,9806.650000,392.266000,-627.625600
346.763950,9492.837200,470.719200,-1019.891600
346.764255,10355.822400,-470.719200,-156.906400
346.764561,9963.556400,-392.266000,0.000000
346.764866,9806.650000,-627.625600,156.906400
346.765172,10042.009600,-1019.891600,862.985200
346.765478,10826.541600,-706.078800,784.532000
346.765783,10512.728800,0.000000,235.359600
346.766089,10434.275600,784.532000,-392.266000
346.766395,10355.822400,1019.891600,-392.266000
346.766700,10042.009600,549.172400,-706.078800
346.767006,10120.462800,470.719200,-706.078800
346.767312,10120.462800,-862.985200,-549.172400
346.767617,9492.837200,0.000000,-156.906400
346.767923,9492.837200,-941.438400,156.906400
346.768229,9963.556400,-627.625600,0.000000
346.768534,9728.196800,-862.985200,78.453200
346.768840,9963.556400,-706.078800,-156.906400
346.769146,10042.009600,0.000000,-156.906400
346.769451,10198.916000,313.812800,-313.812800
346.769757,9885.103200,78.453200,-235.359600
346.770063,10355.822400,-156.906400,-235.359600
346.770368,10042.009600,0.000000,-235.359600
346.770674,9100.571200,-1647.517200,0.000000
346.770980,10277.369200,-1098.344800,156.906400
346.771285,9414.384000,0.000000,313.812800
346.771591,9885.103200,-549.172400,470.719200
346.771897,10434.275600,0.000000,549.172400
346.772202,9885.103200,627.625600,0.000000
346.772508,10669.635200,1176.798000,0.000000
346.772814,10591.182000,941.438400,-156.906400
346.773119,10042.009600,549.172400,-392.266000
346.773425,9728.196800,313.812800,0.000000
346.773731,10355.822400,-706.078800,862.985200
346.774036,8159.132800,235.359600,-470.719200
346.774342,10512.728800,-470.719200,235.359600
346.774648,8629.852000,-627.625600,0.000000
346.774953,9885.103200,156.906400,941.438400
346.775259,10198.916000,0.000000,-156.906400
346.775565,9885.103200,627.625600,156.906400
346.775870,9806.650000,706.078800,0.000000
346.776176,10434.275600,235.359600,78.453200
346.776482,9728.196800,706.078800,784.532000
346.776787,9963.556400,0.000000,156.906400
346.777093,9649.743600,-549.172400,627.625600
346.777399,9649.743600,-470.719200,470.719200
346.777704,10355.822400,-392.266000,784.532000
346.778010,9571.290400,0.000000,470.719200
346.778316,10042.009600,235.359600,313.812800
346.778621,10042.009600,392.266000,235.359600
346.778927,10042.009600,313.812800,78.453200
346.779233,10355.822400,235.359600,-156.906400
346.779538,10042.009600,549.172400,-470.719200
346.779844,9963.556400,0.000000,-470.719200
346.780150,9806.650000,0.000000,235.359600
346.780455,9963.556400,-470.719200,0.000000
346.780761,8472.945600,-156.906400,78.453200
346.781067,9649.743600,-1255.251200,78.453200
346.781372,10042.009600,-706.078800,706.078800
346.781678,9571.290400,78.453200,862.985200
346.781984,9885.103200,470.719200,0.000000
346.782289,10355.822400,392.266000,-156.906400
346.782595,10042.009600,313.812800,-392.266000
346.782901,10748.088400,0.000000,1255.251200
346.783206,8708.305200,0.000000,-627.625600
346.783512,10042.009600,-1019.891600,156.906400
346.783818,9414.384000,-549.172400,470.719200
346.784123,9728.196800,-941.438400,235.359600
346.784429,9806.650000,-392.266000,1019.891600
346.784735,10277.369200,-156.906400,78.453200
346.785040,9963.556400,470.719200,0.000000
346.785346,10355.822400,78.453200,-235.359600
346.785652,10120.462800,549.172400,-392.266000
346.785957,10120.462800,156.906400,0.000000
346.786263,10042.009600,78.453200,78.453200
346.786569,9492.837200,-784.532000,313.812800
346.786874,8786.758400,-156.906400,0.000000
346.787180,10277.369200,0.000000,0.000000
346.787486,9728.196800,-235.359600,0.000000
346.787791,9492.837200,-549.172400,78.453200
346.788097,10120.462800,-313.812800,78.453200
346.788403,9885.103200,235.359600,0.000000
346.788708,10198.916000,470.719200,0.000000
346.789014,10434.275600,1333.704400,0.000000
346.789320,9728.196800,549.172400,-470.719200
346.789625,9885.103200,0.000000,-156.906400
346.789931,10042.009600,-470.719200,392.266000
346.790237,9728.196800,0.000000,235.359600
346.790542,10042.009600,0.000000,392.266000
346.790848,9571.290400,0.000000,235.359600
346.791154,10042.009600,-313.812800,235.359600
346.791459,10042.009600,470.719200,392.266000
346.791765,10277.369200,0.000000,0.000000
346.792070,10277.369200,313.812800,78.453200
346.792376,9728.196800,470.719200,-235.359600
346.792682,10277.369200,392.266000,0.000000
346.792987,9728.196800,0.000000,-392.266000
346.793293,9649.743600,78.453200,-313.812800
346.793599,9179.024400,-1098.344800,235.359600
346.793904,9571.290400,470.719200,0.000000
346.794210,9414.384000,0.000000,-235.359600
346.794516,9885.103200,0.000000,0.000000
346.794821,9963.556400,0.000000,470.719200
346.795127,9963.556400,0.000000,0.000000
346.795433,10198.916000,-156.906400,156.906400
346.795738,10042.009600,392.266000,0.000000
346.796044,9571.290400,0.000000,0.000000
346.796350,9335.930800,0.000000,0.000000
346.796655,10042.009600,-235.359600,313.812800
346.796961,10042.009600,0.000000,-313.812800
346.797267,10042.009600,-627.625600,549.172400
346.797572,9885.103200,-313.812800,862.985200
346.797878,10591.182000,-470.719200,706.078800
346.798184,10042.009600,-78.453200,470.719200
346.798489,8943.664800,0.000000,-78.453200
346.798795,12395.605600,-392.266000,470.719200
346.799101,9414.384000,1176.798000,-706.078800
346.799406,9335.930800,1176.798000,-627.625600
346.799712,10355.822400,-313.812800,-862.985200
346.800018,9257.477600,-235.359600,-862.985200
346.800323,9179.024400,0.000000,-862.985200
346.800629,9571.290400,-549.172400,0.000000
346.800935,9257.477600,-627.625600,-313.812800
346.801240,10355.822400,0.000000,0.000000
346.801546,10042.009600,78.453200,78.453200
346.801852,9728.196800,627.625600,78.453200
346.802157,10277.369200,-313.812800,78.453200
346.802463,10277.369200,0.000000,0.000000
346.802769,10042.009600,235.359600,0.000000
346.803074,10355.822400,-627.625600,156.906400
346.803380,10591.182000,-392.266000,784.532000
346.803686,9728.196800,-156.906400,0.000000
346.803991,9963.556400,235.359600,0.000000
346.804297,9963.556400,235.359600,-156.906400
346.804603,10512.728800,78.453200,392.266000
346.804908,9806.650000,313.812800,156.906400
346.805214,10669.635200,549.172400,78.453200
346.805520,10042.009600,392.266000,235.359600
346.805825,9885.103200,313.812800,-156.906400
346.806131,9571.290400,156.906400,-627.625600
346.806437,9649.743600,0.000000,-470.719200
346.806742,9414.384000,0.000000,-549.172400
346.807048,9649.743600,470.719200,-706.078800
346.807354,9806.650000,0.000000,-627.625600
346.807659,10042.009600,235.359600,0.000000
346.807965,10512.728800,0.000000,-235.359600
346.808271,10120.462800,-392.266000,784.532000
346.808576,10904.994800,470.719200,-392.266000
346.808882,10983.448000,1019.891600,0.000000
346.809188,9885.103200,862.985200,78.453200
346.809493,8865.211600,235.359600,-470.719200
346.809799,10355.822400,-313.812800,313.812800
346.810105,9571.290400,-784.532000,0.000000
346.810410,8943.664800,-156.906400,-235.359600
346.810716,11061.901200,156.906400,-156.906400
346.811022,11611.073600,941.438400,470.719200
346.811327,8943.664800,235.359600,-549.172400
346.811633,9963.556400,0.000000,0.000000
346.811939,9649.743600,78.453200,235.359600
346.812244,10120.462800,0.000000,78.453200
346.812550,10042.009600,-549.172400,78.453200
346.812856,10434.275600,-313.812800,1176.798000
346.813161,9885.103200,78.453200,156.906400
346.813467,9963.556400,-470.719200,0.000000
346.813773,10355.822400,78.453200,0.000000
346.814078,10042.009600,0.000000,78.453200
346.814384,10277.369200,0.000000,549.172400
346.814690,9649.743600,-313.812800,156.906400
346.814995,10198.916000,0.000000,-156.906400
346.815301,9806.650000,156.906400,0.000000
346.815607,10198.916000,0.000000,-392.266000
346.815912,10355.822400,-470.719200,-392.266000
346.816218,10355.822400,-549.172400,0.000000
346.816524,8786.758400,-78.453200,0.000000
346.816829,9492.837200,-941.438400,-156.906400
346.817135,10120.462800,235.359600,0.000000
346.817441,9728.196800,156.906400,0.000000
346.817746,10042.009600,549.172400,-156.906400
346.818052,9885.103200,313.812800,0.000000
346.818358,9963.556400,0.000000,0.000000
346.818663,10277.369200,-392.266000,392.266000
346.818969,10042.009600,-784.532000,470.719200
346.819275,10042.009600,-392.266000,313.812800
346.819580,10042.009600,-313.812800,235.359600
346.819886,12238.699200,1255.251200,706.078800
346.820191,9257.477600,941.438400,-235.359600
346.820497,10748.088400,549.172400,0.000000
346.820803,9963.556400,1412.157600,0.000000
346.821108,9885.103200,0.000000,0.000000
346.821414,10434.275600,0.000000,0.000000
346.821720,10042.009600,0.000000,313.812800
346.822025,9335.930800,-1333.704400,549.172400
346.822331,9022.118000,1098.344800,0.000000
346.822637,11611.073600,862.985200,313.812800
346.822942,9649.743600,235.359600,0.000000
346.823248,10512.728800,627.625600,392.266000
346.823554,10042.009600,627.625600,627.625600
346.823859,10512.728800,627.625600,1019.891600
346.824165,10042.009600,862.985200,627.625600
346.824471,9100.571200,156.906400,0.000000
346.824776,9963.556400,0.000000,0.000000
346.825082,10042.009600,-627.625600,0.000000
346.825388,9179.024400,-706.078800,392.266000
346.825693,9571.290400,-235.359600,-784.532000
346.825999,9728.196800,0.000000,-1176.798000
346.826305,9179.024400,-235.359600,-1412.157600
346.826610,9728.196800,549.172400,-1333.704400
346.826916,9649.743600,470.719200,-862.985200
346.827222,10042.009600,78.453200,-1255.251200
346.827527,9728.196800,156.906400,-941.438400
346.827833,9963.556400,156.906400,-470.719200
346.828139,9963.556400,-235.359600,-549.172400
346.828444,10277.369200,-549.172400,0.000000
346.828750,10120.462800,-784.532000,549.172400
346.829056,9335.930800,0.000000,-78.453200
346.829361,11375.714000,235.359600,-156.906400
346.829667,10042.009600,470.719200,0.000000
346.829973,10120.462800,0.000000,78.453200
346.830278,10904.994800,0.000000,627.625600
346.830584,10198.916000,0.000000,313.812800
346.830890,9963.556400,-392.266000,313.812800
346.831195,10042.009600,-627.625600,392.266000
346.831501,9963.556400,-706.078800,0.000000
346.831807,10355.822400,-313.812800,78.453200
346.832112,9492.837200,-235.359600,-627.625600
346.832418,9492.837200,-627.625600,-627.625600
346.832724,9414.384000,941.438400,-941.438400
346.833029,10591.182000,549.172400,-1019.891600
346.833335,10198.916000,549.172400,-1255.251200
346.833641,9571.290400,-156.906400,-1019.891600
346.833946,10277.369200,0.000000,-470.719200
346.834252,9571.290400,313.812800,-78.453200
346.834558,11061.901200,-156.906400,0.000000
346.834863,10042.009600,941.438400,78.453200
346.835169,10120.462800,392.266000,0.000000
346.835475,10042.009600,706.078800,156.906400
346.835780,10042.009600,235.359600,-235.359600
346.836086,10277.369200,470.719200,156.906400
346.836392,9963.556400,549.172400,313.812800
346.836697,10355.822400,-235.359600,470.719200
346.837003,10198.916000,-470.719200,862.985200
346.837309,10198.916000,-313.812800,862.985200
346.837614,10042.009600,156.906400,549.172400
346.837920,10120.462800,0.000000,549.172400
346.838226,9806.650000,0.000000,470.719200
346.838531,9963.556400,549.172400,-392.266000
346.838837,9728.196800,392.266000,-627.625600
346.839143,9649.743600,235.359600,-549.172400
346.839448,10042.009600,392.266000,-706.078800
346.839754,9963.556400,549.172400,-235.359600
346.840060,9649.743600,313.812800,0.000000
346.840365,9963.556400,0.000000,0.000000
346.840671,10120.462800,-235.359600,0.000000
346.840977,10042.009600,0.000000,0.000000
346.841282,9806.650000,-235.359600,0.000000
346.841588,10120.462800,392.266000,235.359600
346.841894,10355.822400,0.000000,0.000000
346.842199,9728.196800,-784.532000,-313.812800
346.842505,10042.009600,0.000000,0.000000
346.842811,10120.462800,-392.266000,313.812800
346.843116,9728.196800,392.266000,706.078800
346.843422,10120.462800,-470.719200,862.985200
346.843728,10198.916000,-470.719200,706.078800
346.844033,11454.167200,0.000000,1569.064000
346.844339,9414.384000,0.000000,0.000000
346.844645,10277.369200,0.000000,0.000000
346.844950,10277.369200,549.172400,0.000000
346.845256,9649.743600,0.000000,-313.812800
346.845562,9492.837200,0.000000,-392.266000
346.845867,10591.182000,0.000000,-549.172400
346.846173,10277.369200,0.000000,0.000000
346.846479,10120.462800,0.000000,-235.359600
346.846784,9571.290400,-156.906400,0.000000
346.847090,9885.103200,0.000000,235.359600
346.847396,9649.743600,-313.812800,313.812800
346.847701,9414.384000,0.000000,0.000000
346.848007,9492.837200,-313.812800,0.000000
346.848312,7139.241200,-392.266000,-784.532000
346.848618,9571.290400,-313.812800,-549.172400
346.848924,10198.916000,-235.359600,0.000000
346.849229,10434.275600,235.359600,392.266000
346.849535,9257.477600,549.172400,-156.906400
346.849841,10669.635200,0.000000,78.453200
346.850146,9806.650000,0.000000,156.906400
346.850452,9806.650000,-549.172400,941.438400
346.850758,9728.196800,706.078800,0.000000
346.851063,10277.369200,706.078800,0.000000
346.851369,10591.182000,0.000000,0.000000
346.851675,10042.009600,0.000000,0.000000
346.851980,9806.650000,0.000000,-627.625600
346.852286,9885.103200,0.000000,-470.719200
346.852592,10198.916000,0.000000,-156.906400
346.852897,10277.369200,0.000000,0.000000
346.853203,8943.664800,0.000000,549.172400
346.853509,10904.994800,-784.532000,78.453200
346.853814,10042.009600,-313.812800,627.625600
346.854120,9728.196800,0.000000,627.625600
346.854426,10591.182000,78.453200,-156.906400
346.854731,10042.009600,235.359600,-313.812800
346.855037,9728.196800,156.906400,-313.812800
346.855343,9806.650000,470.719200,-235.359600
346.855648,9963.556400,-313.812800,0.000000
346.855954,11140.354400,-470.719200,627.625600
346.856260,9806.650000,-313.812800,156.906400
346.856565,10120.462800,0.000000,627.625600
346.856871,9649.743600,0.000000,235.359600
346.857177,10198.916000,-313.812800,78.453200
346.857482,10042.009600,470.719200,549.172400
346.857788,9963.556400,0.000000,706.078800
346.858094,10042.009600,0.000000,0.000000
346.858399,10355.822400,0.000000,0.000000
346.858705,10434.275600,78.453200,0.000000
346.859011,10120.462800,235.359600,706.078800
346.859316,9728.196800,392.266000,-235.359600
346.859622,9885.103200,78.453200,-235.359600
346.859928,10355.822400,0.000000,0.000000
346.860233,10198.916000,-392.266000,0.000000
346.860539,10042.009600,-235.359600,627.625600
346.860845,10198.916000,-313.812800,0.000000
346.861150,10198.916000,0.000000,156.906400
346.861456,10198.916000,-313.812800,78.453200
346.861762,10042.009600,549.172400,0.000000
346.862067,9728.196800,470.719200,-235.359600
346.862373,10042.009600,627.625600,-392.266000
346.862679,9728.196800,156.906400,0.000000
346.862984,9492.837200,235.359600,-235.359600
346.863290,9728.196800,0.000000,0.000000
346.863596,9728.196800,-235.359600,313.812800
346.863901,9571.290400,392.266000,0.000000
346.864207,9885.103200,0.000000,78.453200
346.864513,10120.462800,235.359600,549.172400
346.864818,10277.369200,156.906400,78.453200
346.865124,10042.009600,392.266000,0.000000
346.865430,10669.635200,470.719200,156.906400
346.865735,10277.369200,235.359600,78.453200
346.866041,9885.103200,235.359600,0.000000
346.866347,9885.103200,156.906400,0.000000
346.866652,10591.182000,941.438400,235.359600
346.866958,8472.945600,-470.719200,941.438400
346.867264,10042.009600,-784.532000,0.000000
346.867569,9414.384000,392.266000,-627.625600
346.867875,10042.009600,-313.812800,-313.812800
346.868181,10120.462800,235.359600,235.359600
346.868486,9179.024400,156.906400,-1333.704400
346.868792,10512.728800,549.172400,-1019.891600
346.869098,9492.837200,0.000000,-706.078800
346.869403,9414.384000,470.719200,-392.266000
346.869709,10042.009600,-235.359600,-156.906400
346.870015,9571.290400,0.000000,313.812800
346.870320,9649.743600,-1255.251200,941.438400
346.870626,10120.462800,0.000000,862.985200
346.870932,11218.807600,627.625600,0.000000
346.871237,8472.945600,156.906400,-156.906400
346.871543,9806.650000,0.000000,549.172400
346.871849,12395.605600,156.906400,549.172400
346.872154,8708.305200,627.625600,0.000000
346.872460,9492.837200,-235.359600,0.000000
346.872766,10042.009600,0.000000,235.359600
346.873071,9571.290400,-941.438400,235.359600
346.873377,9414.384000,-235.359600,-156.906400
346.873683,9885.103200,-235.359600,627.625600
346.873988,9335.930800,-1098.344800,313.812800
346.874294,9649.743600,0.000000,862.985200
346.874600,9885.103200,470.719200,0.000000
346.874905,9649.743600,549.172400,0.000000
346.875211,10355.822400,706.078800,-313.812800
346.875517,9806.650000,0.000000,0.000000
346.875822,9806.650000,-549.172400,0.000000
346.876128,9571.290400,-392.266000,156.906400
346.876433,9492.837200,-549.172400,313.812800
346.876739,9806.650000,-313.812800,0.000000
346.877045,10198.916000,-313.812800,-156.906400
346.877350,10042.009600,78.453200,-549.172400
346.877656,9963.556400,313.812800,-706.078800
346.877962,10983.448000,784.532000,-549.172400
346.878267,10120.462800,470.719200,-470.719200
346.878573,9963.556400,0.000000,-706.078800
346.878879,10042.009600,-313.812800,-392.266000
346.879184,10120.462800,-313.812800,0.000000
346.879490,9571.290400,-549.172400,156.906400
346.879796,9885.103200,-313.812800,78.453200
346.880101,10120.462800,-392.266000,235.359600
346.880407,10512.728800,-313.812800,0.000000
346.880713,9885.103200,156.906400,-235.359600
346.881018,10277.369200,549.172400,-313.812800
346.881324,10355.822400,549.172400,-392.266000
346.881630,9963.556400,392.266000,-392.266000
346.881935,9885.103200,0.000000,-156.906400
346.882241,9649.743600,-313.812800,-156.906400
346.882547,10042.009600,-549.172400,0.000000
346.882852,10042.009600,-313.812800,706.078800
346.883158,10042.009600,78.453200,313.812800
346.883464,10042.009600,-156.906400,78.453200
346.883769,10355.822400,313.812800,0.000000
346.884075,10042.009600,313.812800,-392.266000
346.884381,10120.462800,470.719200,-313.812800
346.884686,9728.196800,235.359600,-313.812800
346.884992,10042.009600,-392.266000,-235.359600
346.885298,9414.384000,-313.812800,0.000000
346.885603,10042.009600,-470.719200,313.812800
346.885909,9179.024400,-470.719200,0.000000
346.886215,9571.290400,-549.172400,0.000000
346.886520,9963.556400,-313.812800,0.000000
346.886826,9885.103200,470.719200,-549.172400
346.887132,9728.196800,627.625600,-706.078800
346.887437,9885.103200,941.438400,-1569.064000
346.887743,9806.650000,862.985200,-1255.251200
346.888049,9100.571200,-78.453200,-1569.064000
346.888354,9335.930800,313.812800,-784.532000
346.888660,9728.196800,549.172400,-1333.704400
346.888966,9335.930800,0.000000,784.532000
346.889271,10983.448000,-862.985200,78.453200
346.889577,10748.088400,1176.798000,-78.453200
346.889883,8708.305200,0.000000,313.812800
346.890188,9963.556400,-313.812800,-549.172400
346.890494,9963.556400,470.719200,0.000000
346.890800,10042.009600,706.078800,-235.359600
346.891105,10042.009600,313.812800,-549.172400
346.891411,10355.822400,235.359600,-549.172400
346.891717,9885.103200,-313.812800,-235.359600
346.892022,9649.743600,-627.625600,-313.812800
346.892328,9649.743600,-862.985200,627.625600
346.892634,9806.650000,-706.078800,627.625600
346.892939,10042.009600,-784.532000,627.625600
346.893245,10591.182000,-313.812800,706.078800
346.893551,10434.275600,235.359600,549.172400
346.893856,10042.009600,941.438400,0.000000
346.894162,10198.916000,627.625600,-235.359600
346.894468,10042.009600,470.719200,-313.812800
346.894773,9885.103200,392.266000,0.000000
346.895079,9571.290400,-392.266000,-235.359600
346.895385,10042.009600,-470.719200,784.532000
346.895690,9885.103200,-784.532000,470.719200
346.895996,9728.196800,0.000000,235.359600
346.896302,11375.714000,-1019.891600,549.172400
346.896607,9806.650000,78.453200,156.906400
346.896913,9728.196800,1569.064000,0.000000
346.897219,11061.901200,941.438400,0.000000
346.897524,10198.916000,941.438400,-235.359600
346.897830,10042.009600,549.172400,-156.906400
346.898136,10277.369200,0.000000,627.625600
346.898441,11846.433200,0.000000,-313.812800
346.898747,9335.930800,-470.719200,156.906400
346.899053,9649.743600,-784.532000,627.625600
346.899358,10277.369200,0.000000,313.812800
346.899664,9885.103200,-549.172400,313.812800
346.899970,10434.275600,627.625600,1019.891600
346.900275,10042.009600,862.985200,470.719200
346.900581,10983.448000,784.532000,235.359600
346.900887,10434.275600,-470.719200,392.266000
346.901192,9335.930800,235.359600,-235.359600
346.901498,11689.526800,-156.906400,1412.157600
346.901804,8865.211600,313.812800,-784.532000
346.902109,9571.290400,-313.812800,0.000000
346.902415,9885.103200,-392.266000,470.719200
346.902721,9885.103200,-706.078800,235.359600
346.903026,9179.024400,-549.172400,-235.359600
346.903332,10748.088400,156.906400,0.000000
346.903637,10042.009600,862.985200,0.000000
346.903943,10120.462800,156.906400,-549.172400
346.904249,9885.103200,549.172400,-784.532000
346.904554,9492.837200,-156.906400,-1019.891600
346.904860,9257.477600,-392.266000,-784.532000
346.905166,9571.290400,-706.078800,0.000000
346.905471,9492.837200,-627.625600,313.812800
346.905777,10277.369200,-706.078800,549.172400
346.906083,10355.822400,-78.453200,1019.891600
346.906388,10434.275600,0.000000,1255.251200
346.906694,11061.901200,1019.891600,78.453200
346.907000,9257.477600,1098.344800,0.000000
346.907305,9649.743600,0.000000,-156.906400
346.907611,9963.556400,78.453200,-862.985200
346.907917,8943.664800,0.000000,-235.359600
346.908222,9728.196800,-1412.157600,-313.812800
346.908528,9885.103200,-1333.704400,-235.359600
346.908834,9335.930800,-1176.798000,-235.359600
346.909139,9335.930800,-706.078800,-549.172400
346.909445,9728.196800,-313.812800,-549.172400
346.909751,9806.650000,313.812800,-1019.891600
346.910056,10120.462800,1255.251200,-1647.517200
346.910362,9806.650000,1176.798000,-1725.970400
346.910668,9806.650000,549.172400,-1412.157600
346.910973,9885.103200,549.172400,-941.438400
346.911279,9885.103200,392.266000,-941.438400
346.911585,10355.822400,0.000000,0.000000
346.911890,10042.009600,-784.532000,392.266000
346.912196,9806.650000,-156.906400,549.172400
346.912502,10042.009600,-392.266000,862.985200
346.912807,10669.635200,0.000000,0.000000
346.913113,10591.182000,1098.344800,941.438400
346.913419,10434.275600,1333.704400,392.266000
346.913724,10512.728800,627.625600,0.000000
346.914030,10277.369200,235.359600,156.906400
346.914336,9649.743600,0.000000,392.266000
346.914641,9649.743600,-470.719200,0.000000
346.914947,9649.743600,-1019.891600,235.359600
346.915253,9885.103200,-1333.704400,470.719200
346.915558,9492.837200,-1255.251200,470.719200
346.915864,8943.664800,0.000000,0.000000
346.916170,9806.650000,156.906400,0.000000
346.916475,10120.462800,706.078800,-706.078800
346.916781,10042.009600,784.532000,-627.625600
346.917087,9179.024400,0.000000,0.000000
346.917392,8865.211600,313.812800,-706.078800
346.917698,11532.620400,0.000000,-313.812800
346.918004,9100.571200,0.000000,-313.812800
346.918309,8472.945600,-392.266000,-470.719200
346.918615,10042.009600,-706.078800,0.000000
346.918921,10120.462800,-549.172400,156.906400
346.919226,9649.743600,0.000000,470.719200
346.919532,10512.728800,706.078800,392.266000
346.919838,10434.275600,549.172400,78.453200
346.920143,10669.635200,156.906400,0.000000
346.920449,9492.837200,78.453200,-392.266000
346.920755,11140.354400,941.438400,156.906400
346.921060,9649.743600,0.000000,-549.172400
346.921366,9806.650000,-706.078800,-313.812800
346.921672,10434.275600,-627.625600,0.000000
346.921977,10042.009600,-706.078800,0.000000
346.922283,10120.462800,78.453200,313.812800
346.922589,9963.556400,235.359600,78.453200
346.922894,10198.916000,0.000000,0.000000
346.923200,10669.635200,470.719200,-156.906400
346.923506,10198.916000,470.719200,-313.812800
346.923811,9885.103200,470.719200,-784.532000
346.924117,11218.807600,0.000000,-235.359600
346.924423,9728.196800,-313.812800,0.000000
346.924728,9728.196800,0.000000,0.000000
346.925034,10355.822400,-549.172400,627.625600
346.925340,9885.103200,-627.625600,1176.798000
346.925645,10042.009600,0.000000,0.000000
346.925951,10042.009600,627.625600,235.359600
346.926257,10591.182000,313.812800,78.453200
346.926562,10120.462800,392.266000,0.000000
346.926868,9649.743600,470.719200,-392.266000
346.927174,10120.462800,392.266000,313.812800
346.927479,10042.009600,78.453200,-392.266000
346.927785,9571.290400,-156.906400,-156.906400
346.928091,9885.103200,-549.172400,0.000000
346.928396,10277.369200,-470.719200,470.719200
346.928702,9885.103200,-549.172400,627.625600
346.929008,9885.103200,235.359600,156.906400
346.929313,10277.369200,627.625600,156.906400
346.929619,10198.916000,392.266000,0.000000
346.929925,10120.462800,784.532000,0.000000
346.930230,9806.650000,862.985200,-470.719200
346.930536,10042.009600,313.812800,-392.266000
346.930842,9963.556400,-392.266000,0.000000
346.931147,9571.290400,-470.719200,78.453200
346.931453,10277.369200,-941.438400,706.078800
346.931758,9885.103200,-862.985200,784.532000
346.932064,9257.477600,-1569.064000,784.532000
346.932370,9885.103200,0.000000,862.985200
346.932675,11218.807600,1019.891600,392.266000
346.932981,9885.103200,941.438400,78.453200
346.933287,9649.743600,1019.891600,0.000000
346.933592,10591.182000,470.719200,-235.359600
346.933898,10042.009600,78.453200,-470.719200
346.934204,9414.384000,-549.172400,78.453200
346.934509,9414.384000,-549.172400,627.625600
346.934815,10042.009600,-1255.251200,862.985200
346.935121,10198.916000,-784.532000,392.266000
346.935426,9728.196800,470.719200,0.000000
346.935732,9728.196800,1255.251200,-627.625600
346.936038,9963.556400,1176.798000,-392.266000
346.936343,9963.556400,1176.798000,-862.985200
346.936649,10120.462800,784.532000,-627.625600
346.936955,9728.196800,156.906400,0.000000
346.937260,10042.009600,-1019.891600,156.906400
346.937566,9728.196800,-1019.891600,706.078800
346.937872,10042.009600,-941.438400,470.719200
346.938177,10434.275600,-941.438400,706.078800
346.938483,9885.103200,0.000000,1098.344800
346.938789,12944.778000,2353.596000,1176.798000
346.939094,9492.837200,941.438400,549.172400
346.939400,9806.650000,470.719200,156.906400
346.939706,10120.462800,549.172400,-862.985200
346.940011,10198.916000,549.172400,0.000000
346.940317,9728.196800,0.000000,156.906400
346.940623,9806.650000,-784.532000,235.359600
346.940928,10042.009600,-941.438400,313.812800
346.941234,9257.477600,-1412.157600,1176.798000
346.941540,10591.182000,-156.906400,1019.891600
346.941845,8708.305200,235.359600,-235.359600
346.942151,10512.728800,313.812800,-313.812800
346.942457,10512.728800,627.625600,0.000000
346.942762,8786.758400,784.532000,549.172400
346.943068,9963.556400,0.000000,-1019.891600
346.943374,10904.994800,1176.798000,-156.906400
346.943679,9492.837200,-549.172400,470.719200
346.943985,10904.994800,-862.985200,470.719200
346.944291,9963.556400,549.172400,0.000000
346.944596,11375.714000,-470.719200,1333.704400
346.944902,9335.930800,0.000000,0.000000
346.945208,9885.103200,784.532000,-470.719200
346.945513,11061.901200,862.985200,156.906400
346.945819,9885.103200,313.812800,0.000000
346.946125,9257.477600,470.719200,0.000000
346.946430,9963.556400,0.000000,-706.078800
346.946736,9649.743600,313.812800,-627.625600
346.947042,9257.477600,-706.078800,-941.438400
346.947347,9885.103200,-549.172400,-627.625600
346.947653,9649.743600,-784.532000,-156.906400
346.947959,9963.556400,-235.359600,-549.172400
346.948264,10198.916000,0.000000,0.000000
346.948570,10355.822400,235.359600,0.000000
346.948876,10826.541600,706.078800,313.812800
346.949181,10983.448000,1098.344800,235.359600
346.949487,10277.369200,549.172400,-470.719200
346.949793,10591.182000,392.266000,-235.359600
346.950098,9492.837200,549.172400,-392.266000
346.950404,9806.650000,-156.906400,-313.812800
346.950710,9728.196800,-1098.344800,0.000000
346.951015,9885.103200,-941.438400,156.906400
346.951321,9885.103200,-627.625600,0.000000
346.951627,9728.196800,0.000000,0.000000
346.951932,10355.822400,392.266000,0.000000
346.952238,10120.462800,1098.344800,-470.719200
346.952544,10198.916000,313.812800,-784.532000
346.952849,10120.462800,941.438400,-1019.891600
346.953155,9649.743600,235.359600,-941.438400
346.953461,9963.556400,0.000000,-941.438400
346.953766,9492.837200,156.906400,-627.625600
346.954072,9806.650000,-941.438400,-235.359600
346.954378,10355.822400,-549.172400,0.000000
346.954683,9649.743600,-392.266000,0.000000
346.954989,9885.103200,78.453200,0.000000
346.955295,10591.182000,235.359600,313.812800
346.955600,9963.556400,313.812800,470.719200
346.955906,9728.196800,862.985200,470.719200
346.956212,10198.916000,470.719200,-156.906400
346.956517,9963.556400,78.453200,0.000000
346.956823,10277.369200,862.985200,-313.812800
346.957129,9022.118000,-784.532000,-1098.344800
346.957434,11061.901200,-1882.876800,0.000000
346.957740,9571.290400,-470.719200,235.359600
346.958046,9728.196800,-862.985200,156.906400
346.958351,9963.556400,-392.266000,784.532000
346.958657,11532.620400,862.985200,1804.423600
346.958963,8472.945600,784.532000,-784.532000
346.959268,11375.714000,156.906400,78.453200
346.959574,9649.743600,1176.798000,-1569.064000
346.959879,10042.009600,941.438400,0.000000
346.960185,9335.930800,0.000000,-313.812800
346.960491,11218.807600,-784.532000,78.453200
346.960796,10042.009600,-1333.704400,235.359600
346.961102,10434.275600,-1569.064000,862.985200
346.961408,10198.916000,-627.625600,0.000000
346.961713,10277.369200,627.625600,235.359600
346.962019,11924.886400,313.812800,549.172400
346.962325,8786.758400,392.266000,-862.985200
346.962630,10904.994800,627.625600,-313.812800
346.962936,10434.275600,235.359600,-470.719200
346.963242,9022.118000,78.453200,-156.906400
346.963547,10198.916000,-392.266000,0.000000
346.963853,10277.369200,-784.532000,313.812800
346.964159,9022.118000,-862.985200,235.359600
346.964464,9885.103200,-313.812800,0.000000
346.964770,10277.369200,0.000000,0.000000
346.965076,10355.822400,78.453200,235.359600
346.965381,9649.743600,392.266000,0.000000
346.965687,9571.290400,784.532000,-392.266000
346.965993,10198.916000,156.906400,-313.812800
346.966298,10042.009600,-235.359600,-392.266000
346.966604,9571.290400,0.000000,78.453200
346.966910,9649.743600,-627.625600,-313.812800
346.967215,9649.743600,-706.078800,235.359600
346.967521,10042.009600,0.000000,549.172400
346.967827,9963.556400,235.359600,235.359600
346.968132,10120.462800,470.719200,156.906400
346.968438,10277.369200,78.453200,470.719200
346.968744,10042.009600,235.359600,156.906400
346.969049,9492.837200,627.625600,0.000000
346.969355,9963.556400,156.906400,0.000000
346.969661,9728.196800,78.453200,0.000000
346.969966,10042.009600,-392.266000,0.000000
346.970272,9728.196800,-549.172400,235.359600
346.970578,10198.916000,-549.172400,78.453200
346.970883,10512.728800,0.000000,78.453200
346.971189,10042.009600,78.453200,78.453200
346.971495,10277.369200,156.906400,78.453200
346.971800,9179.024400,156.906400,-392.266000
346.972106,10042.009600,549.172400,-235.359600
346.972412,10277.369200,235.359600,-156.906400
346.972717,9728.196800,-313.812800,-392.266000
346.973023,9414.384000,549.172400,549.172400
346.973329,9100.571200,-470.719200,-706.078800
346.973634,9649.743600,-549.172400,-313.812800
346.973940,10198.916000,235.359600,-78.453200
346.974246,9571.290400,313.812800,-235.359600
346.974551,9649.743600,470.719200,0.000000
346.974857,10042.009600,0.000000,0.000000
346.975163,9728.196800,-392.266000,0.000000
346.975468,9728.196800,156.906400,0.000000
346.975774,10198.916000,156.906400,470.719200
346.976080,10512.728800,392.266000,627.625600
346.976385,9885.103200,-784.532000,0.000000
346.976691,9022.118000,-235.359600,-156.906400
346.976997,10042.009600,-1255.251200,0.000000
346.977302,8629.852000,-549.172400,-392.266000
346.977608,10512.728800,-627.625600,392.266000
346.977914,10434.275600,-470.719200,235.359600
346.978219,9885.103200,-78.453200,-235.359600
346.978525,9257.477600,235.359600,0.000000
346.978831,11218.807600,0.000000,-156.906400
346.979136,9963.556400,1647.517200,-549.172400
346.979442,9806.650000,862.985200,-627.625600
346.979748,10904.994800,549.172400,235.359600
346.980053,9179.024400,0.000000,-549.172400
346.980359,10748.088400,0.000000,-313.812800
346.980665,9806.650000,235.359600,392.266000
346.980970,10042.009600,1333.704400,0.000000
346.981276,9963.556400,-470.719200,-235.359600
346.981582,10198.916000,706.078800,78.453200
346.981887,10277.369200,313.812800,0.000000
346.982193,9335.930800,-235.359600,-313.812800
346.982499,10512.728800,0.000000,235.359600
346.982804,10277.369200,-470.719200,-156.906400
346.983110,9179.024400,-235.359600,-156.906400
346.983416,9885.103200,78.453200,0.000000
346.983721,10198.916000,0.000000,0.000000
346.984027,9885.103200,0.000000,0.000000
346.984333,10355.822400,0.000000,156.906400
346.984638,9728.196800,0.000000,156.906400
346.984944,10042.009600,392.266000,0.000000
346.985250,10198.916000,156.906400,0.000000
346.985555,9728.196800,706.078800,-470.719200
346.985861,10198.916000,0.000000,-235.359600
346.986167,10277.369200,156.906400,156.906400
346.986472,9728.196800,0.000000,235.359600
346.986778,10042.009600,78.453200,78.453200
346.987084,10434.275600,470.719200,-392.266000
346.987389,9963.556400,0.000000,549.172400
346.987695,9728.196800,0.000000,313.812800
346.988000,9806.650000,392.266000,235.359600
346.988306,9649.743600,78.453200,313.812800
346.988612,10355.822400,-627.625600,235.359600
346.988917,10120.462800,235.359600,156.906400
346.989223,10042.009600,0.000000,-470.719200
346.989529,10042.009600,0.000000,-627.625600
346.989834,9571.290400,-313.812800,-549.172400
346.990140,9728.196800,0.000000,-549.172400
346.990446,10120.462800,0.000000,0.000000
346.990751,9806.650000,235.359600,-392.266000
346.991057,9885.103200,0.000000,0.000000
346.991363,10277.369200,0.000000,78.453200
346.991668,10198.916000,0.000000,156.906400
346.991974,9885.103200,156.906400,313.812800
346.992280,10277.369200,313.812800,0.000000
346.992585,9963.556400,78.453200,-313.812800
346.992891,9806.650000,0.000000,-235.359600
346.993197,10120.462800,-156.906400,78.453200
346.993502,10042.009600,-392.266000,0.000000
346.993808,10042.009600,-392.266000,627.625600
346.994114,9963.556400,-470.719200,627.625600
346.994419,9885.103200,-313.812800,470.719200
346.994725,10355.822400,78.453200,549.172400
346.995031,9963.556400,0.000000,0.000000
346.995336,9179.024400,392.266000,-235.359600
346.995642,9728.196800,470.719200,-470.719200
346.995948,9885.103200,-313.812800,-313.812800
346.996253,9963.556400,235.359600,0.000000
346.996559,9414.384000,78.453200,-313.812800
346.996865,10042.009600,0.000000,-862.985200
346.997170,9257.477600,0.000000,-862.985200
346.997476,8316.039200,-1725.970400,1019.891600
346.997782,8629.852000,78.453200,156.906400
346.998087,11061.901200,784.532000,-392.266000
346.998393,9179.024400,941.438400,-470.719200
346.998699,9728.196800,549.172400,-941.438400
346.999004,10042.009600,156.906400,-784.532000
346.999310,9728.196800,78.453200,-549.172400
346.999616,10042.009600,235.359600,0.000000
346.999921,10355.822400,0.000000,784.532000
347.000227,9806.650000,-941.438400,470.719200
347.000533,9571.290400,156.906400,235.359600
347.000838,10198.916000,-470.719200,156.906400
347.001144,10983.448000,706.078800,1019.891600
347.001450,9728.196800,78.453200,392.266000
347.001755,10120.462800,706.078800,156.906400
347.002061,10355.822400,392.266000,0.000000
347.002367,10042.009600,0.000000,0.000000
347.002672,9806.650000,235.359600,0.000000
347.002978,9963.556400,549.172400,-235.359600
347.003284,9885.103200,-549.172400,-627.625600
347.003589,9100.571200,-156.906400,-470.719200
347.003895,10042.009600,0.000000,-470.719200
347.004201,9885.103200,0.000000,0.000000
347.004506,9885.103200,-156.906400,313.812800
347.004812,10120.462800,235.359600,235.359600
347.005118,9806.650000,0.000000,0.000000
347.005423,9571.290400,0.000000,-235.359600
347.005729,10355.822400,0.000000,156.906400
347.006035,10042.009600,392.266000,-627.625600
347.006340,12866.324800,-3844.206800,0.000000
347.006646,8943.664800,1333.704400,0.000000
347.006952,8629.852000,235.359600,313.812800
347.007257,10355.822400,-235.359600,0.000000
347.007563,10355.822400,0.000000,470.719200
347.007869,9806.650000,-470.719200,0.000000
347.008174,9649.743600,392.266000,0.000000
347.008480,10591.182000,0.000000,-156.906400
347.008786,10355.822400,-313.812800,-156.906400
347.009091,9649.743600,78.453200,0.000000
347.009397,9728.196800,0.000000,-78.453200
347.009703,10120.462800,-313.812800,-470.719200
347.010008,9571.290400,0.000000,-156.906400
347.010314,10355.822400,0.000000,-470.719200
347.010620,9963.556400,-313.812800,-392.266000
347.010925,9257.477600,470.719200,-470.719200
347.011231,10591.182000,-235.359600,-313.812800
347.011537,10120.462800,0.000000,-156.906400
347.011842,10042.009600,0.000000,0.000000
347.012148,12081.792800,549.172400,549.172400
347.012454,9728.196800,470.719200,-549.172400
347.012759,10355.822400,156.906400,-470.719200
347.013065,10120.462800,706.078800,-627.625600
347.013371,9806.650000,392.266000,0.000000
347.013676,9963.556400,0.000000,235.359600
347.013982,9492.837200,156.906400,706.078800
347.014288,10277.369200,-235.359600,627.625600
347.014593,10669.635200,-313.812800,784.532000
347.014899,10669.635200,0.000000,235.359600
347.015204,9963.556400,627.625600,0.000000
347.015510,8472.945600,1176.798000,0.000000
347.015816,10355.822400,706.078800,-313.812800
347.016121,9414.384000,392.266000,-1098.344800
347.016427,9492.837200,0.000000,235.359600
347.016733,10120.462800,-470.719200,706.078800
347.017038,9492.837200,-627.625600,235.359600
347.017344,10042.009600,-156.906400,0.000000
347.017650,9728.196800,78.453200,0.000000
347.017955,9885.103200,627.625600,0.000000
347.018261,10198.916000,235.359600,0.000000
347.018567,10120.462800,392.266000,0.000000
347.018872,10355.822400,313.812800,-470.719200
347.019178,9963.556400,0.000000,0.000000
347.019484,9257.477600,0.000000,156.906400
347.019789,9728.196800,0.000000,78.453200
347.020095,9885.103200,0.000000,235.359600
347.020401,10591.182000,0.000000,941.438400
347.020706,9492.837200,-549.172400,862.985200
347.021012,10042.009600,0.000000,235.359600
347.021318,10669.635200,235.359600,1019.891600
347.021623,10277.369200,78.453200,627.625600
347.021929,10434.275600,862.985200,941.438400
347.022235,10669.635200,784.532000,862.985200
347.022540,10748.088400,235.359600,549.172400
347.022846,10120.462800,0.000000,784.532000
347.023152,10198.916000,78.453200,1098.344800
347.023457,10120.462800,-235.359600,1019.891600
347.023763,9885.103200,-784.532000,392.266000
347.024069,10042.009600,0.000000,392.266000
347.024374,9728.196800,-156.906400,156.906400
347.024680,9728.196800,0.000000,-392.266000
347.024986,9649.743600,313.812800,-941.438400
347.025291,9649.743600,0.000000,-941.438400
347.025597,9963.556400,-235.359600,-1176.798000
347.025903,9335.930800,0.000000,-1255.251200
347.026208,8865.211600,-627.625600,-1412.157600
347.026514,9414.384000,-627.625600,-1333.704400
347.026820,9806.650000,-470.719200,-1098.344800
347.027125,9649.743600,-706.078800,-549.172400
347.027431,9806.650000,-313.812800,-706.078800
347.027737,10512.728800,-313.812800,-392.266000
347.028042,10198.916000,78.453200,-235.359600
347.028348,10512.728800,784.532000,-627.625600
347.028654,10591.182000,706.078800,-392.266000
347.028959,10748.088400,392.266000,-156.906400
347.029265,10669.635200,0.000000,0.000000
347.029571,10042.009600,-392.266000,0.000000
347.029876,10198.916000,-470.719200,549.172400
347.030182,11061.901200,-941.438400,862.985200
347.030488,10198.916000,-706.078800,1019.891600
347.030793,10434.275600,-470.719200,627.625600
347.031099,10042.009600,156.906400,156.906400
347.031405,9963.556400,549.172400,0.000000
347.031710,9963.556400,1019.891600,-549.172400
347.032016,9414.384000,706.078800,-1098.344800
347.032322,8786.758400,78.453200,-392.266000
347.032627,9963.556400,-1098.344800,-862.985200
347.032933,9179.024400,-78.453200,-549.172400
347.033239,9728.196800,-392.266000,1647.517200
347.033544,10277.369200,-941.438400,706.078800
347.033850,10042.009600,0.000000,0.000000
347.034156,9649.743600,470.719200,0.000000
347.034461,9728.196800,1333.704400,-313.812800
347.034767,10512.728800,1255.251200,-392.266000
347.035073,10355.822400,1019.891600,-313.812800
347.035378,9885.103200,470.719200,-392.266000
347.035684,10042.009600,0.000000,-313.812800
347.035990,9963.556400,235.359600,0.000000
347.036295,9649.743600,-392.266000,549.172400
347.036601,10042.009600,-627.625600,941.438400
347.036907,10355.822400,-470.719200,862.985200
347.037212,10120.462800,156.906400,706.078800
347.037518,11061.901200,0.000000,1569.064000
347.037824,9335.930800,470.719200,-1019.891600
347.038129,11297.260800,2118.236400,-706.078800
347.038435,10591.182000,1098.344800,-784.532000
347.038741,9022.118000,235.359600,-784.532000
347.039046,9806.650000,-156.906400,-706.078800
347.039352,10042.009600,-549.172400,392.266000
347.039658,9571.290400,-941.438400,235.359600
347.039963,9728.196800,-941.438400,549.172400
347.040269,9414.384000,-470.719200,235.359600
347.040575,10120.462800,-235.359600,313.812800
347.040880,10120.462800,784.532000,235.359600
347.041186,10042.009600,-235.359600,549.172400
347.041492,9649.743600,784.532000,0.000000
347.041797,10198.916000,1333.704400,-1098.344800
347.042103,9885.103200,0.000000,-549.172400
347.042409,8786.758400,-313.812800,-156.906400
347.042714,10277.369200,-470.719200,470.719200
347.043020,10277.369200,-1961.330000,549.172400
347.043325,9571.290400,-1569.064000,941.438400
347.043631,9885.103200,-392.266000,784.532000
347.043937,10277.369200,78.453200,235.359600
347.044242,10198.916000,706.078800,-313.812800
347.044548,10042.009600,1098.344800,-470.719200
347.044854,10355.822400,1176.798000,-706.078800
347.045159,9885.103200,313.812800,-784.532000
347.045465,10120.462800,0.000000,-549.172400
347.045771,9571.290400,-235.359600,-392.266000
347.046076,10042.009600,-862.985200,-549.172400
347.046382,9885.103200,-1098.344800,-235.359600
347.046688,9100.571200,-862.985200,-235.359600
347.046993,9885.103200,-470.719200,-313.812800
347.047299,10669.635200,156.906400,706.078800
347.047605,10042.009600,470.719200,313.812800
347.047910,10277.369200,862.985200,78.453200
347.048216,10434.275600,1098.344800,-235.359600
347.048522,9885.103200,313.812800,-470.719200
347.048827,9571.290400,235.359600,-549.172400
347.049133,10042.009600,-156.906400,-156.906400
347.049439,10042.009600,-941.438400,392.266000
347.049744,10120.462800,-941.438400,627.625600
347.050050,9728.196800,-706.078800,706.078800
347.050356,9414.384000,78.453200,784.532000
347.050661,10355.822400,0.000000,-156.906400
347.050967,10277.369200,941.438400,0.000000
347.051273,10042.009600,1412.157600,78.453200
347.051578,9963.556400,313.812800,-549.172400
347.051884,9963.556400,470.719200,0.000000
347.052190,10277.369200,78.453200,862.985200
347.052495,11218.807600,-1098.344800,1019.891600
347.052801,8943.664800,-941.438400,156.906400
347.053107,9100.571200,0.000000,-313.812800
347.053412,10042.009600,0.000000,0.000000
347.053718,9414.384000,-862.985200,235.359600
347.054024,8786.758400,313.812800,-706.078800
347.054329,10042.009600,1019.891600,-784.532000
347.054635,9963.556400,627.625600,-1176.798000
347.054941,9022.118000,470.719200,-1255.251200
347.055246,10277.369200,78.453200,-392.266000
347.055552,9963.556400,-235.359600,-392.266000
347.055858,9728.196800,-941.438400,78.453200
347.056163,9806.650000,-1255.251200,470.719200
347.056469,9179.024400,-706.078800,78.453200
347.056775,10591.182000,-313.812800,1098.344800
347.057080,10748.088400,0.000000,941.438400
347.057386,10669.635200,549.172400,549.172400
347.057692,10512.728800,784.532000,156.906400
347.057997,10198.916000,784.532000,-392.266000
347.058303,9963.556400,862.985200,0.000000
347.058609,10355.822400,392.266000,78.453200
347.058914,10042.009600,-235.359600,313.812800
347.059220,10277.369200,-941.438400,784.532000
347.059526,10120.462800,-1098.344800,862.985200
347.059831,10512.728800,-313.812800,156.906400
347.060137,9885.103200,392.266000,0.000000
347.060443,10120.462800,862.985200,-627.625600
347.060748,10355.822400,784.532000,-862.985200
347.061054,9571.290400,470.719200,-1019.891600
347.061360,11532.620400,156.906400,470.719200
347.061665,9806.650000,235.359600,-313.812800
347.061971,9492.837200,0.000000,-941.438400
347.062277,10198.916000,-941.438400,78.453200
347.062582,9963.556400,-627.625600,313.812800
347.062888,9806.650000,-784.532000,0.000000
347.063194,10277.369200,-627.625600,235.359600
347.063499,9806.650000,0.000000,0.000000
347.063805,10434.275600,392.266000,-235.359600
347.064111,10512.728800,1098.344800,-784.532000
347.064416,9571.290400,0.000000,-156.906400
347.064722,8708.305200,2745.862000,-470.719200
347.065028,6825.428400,1725.970400,-313.812800
347.065333,11297.260800,1098.344800,0.000000
347.065639,9728.196800,-862.985200,156.906400
347.065945,9022.118000,-1569.064000,784.532000
347.066250,9963.556400,549.172400,706.078800
347.066556,9335.930800,-392.266000,392.266000
347.066862,10198.916000,-235.359600,0.000000
347.067167,10042.009600,313.812800,-627.625600
347.067473,9414.384000,1019.891600,-1176.798000
347.067779,9728.196800,1098.344800,-1333.704400
347.068084,9335.930800,392.266000,-1176.798000
347.068390,10591.182000,-235.359600,0.000000
347.068696,9963.556400,-706.078800,0.000000
347.069001,9649.743600,-941.438400,156.906400
347.069307,10042.009600,-392.266000,706.078800
347.069613,9728.196800,0.000000,1176.798000
347.069918,10512.728800,470.719200,156.906400
347.070224,10355.822400,549.172400,392.266000
347.070530,10434.275600,1019.891600,-392.266000
347.070835,10042.009600,784.532000,-941.438400
347.071141,10120.462800,941.438400,-941.438400
347.071446,9728.196800,0.000000,-313.812800
347.071752,10277.369200,-1255.251200,0.000000
347.072058,10042.009600,-1412.157600,784.532000
347.072363,9963.556400,-706.078800,862.985200
347.072669,9649.743600,-706.078800,862.985200
347.072975,10042.009600,78.453200,627.625600
347.073280,10591.182000,706.078800,627.625600
347.073586,10669.635200,549.172400,470.719200
347.073892,10198.916000,1176.798000,156.906400
347.074197,9806.650000,862.985200,-392.266000
347.074503,9571.290400,470.719200,-1019.891600
347.074809,9963.556400,-313.812800,-627.625600
347.075114,9571.290400,-549.172400,0.000000
347.075420,9728.196800,-941.438400,313.812800
347.075726,9649.743600,-706.078800,392.266000
347.076031,10826.541600,-941.438400,1725.970400
347.076337,9492.837200,470.719200,-627.625600
347.076643,10434.275600,1255.251200,78.453200
347.076948,11532.620400,941.438400,941.438400
347.077254,8629.852000,1490.610800,-1098.344800
347.077560,11297.260800,1569.064000,-627.625600
347.077865,10826.541600,627.625600,0.000000
347.078171,9257.477600,-313.812800,0.000000
347.078477,10591.182000,-1098.344800,0.000000
347.078782,9806.650000,-941.438400,78.453200
347.079088,10042.009600,-1412.157600,627.625600
347.079394,10512.728800,78.453200,549.172400
347.079699,10198.916000,-392.266000,784.532000
347.080005,10277.369200,549.172400,0.000000
347.080311,11454.167200,549.172400,-706.078800
347.080616,9728.196800,627.625600,-706.078800
347.080922,9806.650000,392.266000,-784.532000
347.081228,10669.635200,0.000000,0.000000
347.081533,9414.384000,-784.532000,0.000000
347.081839,9492.837200,-1176.798000,78.453200
347.082145,10198.916000,-862.985200,862.985200
347.082450,10042.009600,-1412.157600,313.812800
347.082756,9963.556400,-392.266000,0.000000
347.083062,10277.369200,549.172400,0.000000
347.083367,9885.103200,862.985200,-156.906400
347.083673,9414.384000,1412.157600,-627.625600
347.083979,9963.556400,706.078800,-706.078800
347.084284,9179.024400,78.453200,-706.078800
347.084590,10120.462800,-784.532000,-313.812800
347.084896,10042.009600,-1255.251200,0.000000
347.085201,10042.009600,-1333.704400,235.359600
347.085507,10355.822400,-784.532000,392.266000
347.085813,9571.290400,0.000000,-235.359600
347.086118,10198.916000,549.172400,0.000000
347.086424,10042.009600,313.812800,-313.812800
347.086730,10355.822400,706.078800,-1019.891600
347.087035,8943.664800,627.625600,-78.453200
347.087341,9963.556400,78.453200,-470.719200
347.087647,9963.556400,862.985200,-392.266000
347.087952,9649.743600,-627.625600,156.906400
347.088258,9963.556400,-706.078800,0.000000
347.088564,9649.743600,-470.719200,235.359600
347.088869,9885.103200,-627.625600,549.172400
347.089175,9885.103200,0.000000,549.172400
347.089481,10198.916000,549.172400,0.000000
347.089786,9963.556400,1019.891600,-313.812800
347.090092,10277.369200,313.812800,0.000000
347.090398,9649.743600,706.078800,-627.625600
347.090703,9806.650000,706.078800,-627.625600
347.091009,9335.930800,-1176.798000,0.000000
347.091315,9257.477600,-706.078800,-549.172400
347.091620,11767.980000,-627.625600,-156.906400
347.091926,9100.571200,-549.172400,156.906400
347.092232,9806.650000,0.000000,470.719200
347.092537,10748.088400,549.172400,470.719200
347.092843,9649.743600,862.985200,0.000000
347.093149,10120.462800,862.985200,78.453200
347.093454,10198.916000,549.172400,-392.266000
347.093760,9806.650000,627.625600,-627.625600
347.094066,10277.369200,0.000000,0.000000
347.094371,10355.822400,-627.625600,941.438400
347.094677,10277.369200,-1490.610800,1255.251200
347.094983,10434.275600,-1333.704400,941.438400
347.095288,9885.103200,-941.438400,627.625600
347.095594,10120.462800,78.453200,78.453200
347.095900,10198.916000,1019.891600,-470.719200
347.096205,9728.196800,1333.704400,-862.985200
347.096511,10355.822400,1176.798000,-470.719200
347.096817,10042.009600,235.359600,-392.266000
347.097122,9649.743600,-392.266000,0.000000
347.097428,9571.290400,-1019.891600,-235.359600
347.097734,9728.196800,-1019.891600,0.000000
347.098039,9963.556400,-549.172400,-313.812800
347.098345,9728.196800,-784.532000,0.000000
347.098650,9728.196800,0.000000,0.000000
347.098956,10042.009600,156.906400,313.812800
347.099262,11061.901200,392.266000,313.812800
347.099567,9649.743600,941.438400,0.000000
347.099873,10042.009600,0.000000,-156.906400
347.100179,10042.009600,235.359600,-392.266000
347.100484,9649.743600,-392.266000,-235.359600
347.100790,9963.556400,-627.625600,235.359600
347.101096,9728.196800,-549.172400,470.719200
347.101401,10120.462800,-549.172400,0.000000
347.101707,10042.009600,-313.812800,549.172400
347.102013,10277.369200,235.359600,156.906400
347.102318,10198.916000,862.985200,0.000000
347.102624,10042.009600,1255.251200,549.172400
347.102930,10120.462800,235.359600,-627.625600
347.103235,10042.009600,549.172400,-627.625600
347.103541,10355.822400,313.812800,-235.359600
347.103847,9571.290400,-470.719200,0.000000
347.104152,10042.009600,-549.172400,313.812800
347.104458,10748.088400,-313.812800,392.266000
347.104764,9806.650000,-706.078800,156.906400
347.105069,10042.009600,156.906400,784.532000
347.105375,10277.369200,0.000000,392.266000
347.105681,10434.275600,706.078800,0.000000
347.105986,9414.384000,549.172400,-1098.344800
347.106292,9257.477600,235.359600,-470.719200
347.106598,9728.196800,313.812800,-706.078800
347.106903,9649.743600,0.000000,-549.172400
347.107209,9728.196800,-784.532000,0.000000
347.107515,10042.009600,-941.438400,-78.453200
347.107820,9806.650000,-784.532000,0.000000
347.108126,9963.556400,-706.078800,0.000000
347.108432,10042.009600,0.000000,156.906400
347.108737,9963.556400,862.985200,0.000000
347.109043,10277.369200,1019.891600,-156.906400
347.109349,10355.822400,862.985200,0.000000
347.109654,9806.650000,549.172400,0.000000
347.109960,9806.650000,78.453200,0.000000
347.110266,10512.728800,-784.532000,156.906400
347.110571,9728.196800,-784.532000,392.266000
347.110877,9963.556400,-392.266000,0.000000
347.111183,10120.462800,-706.078800,235.359600
347.111488,10042.009600,-235.359600,313.812800
347.111794,10042.009600,313.812800,78.453200
347.112100,9806.650000,549.172400,0.000000
347.112405,10669.635200,156.906400,-156.906400
347.112711,9806.650000,392.266000,-470.719200
347.113017,9806.650000,549.172400,0.000000
347.113322,9806.650000,0.000000,-392.266000
347.113628,9414.384000,-627.625600,-235.359600
347.113934,9728.196800,-235.359600,-470.719200
347.114239,9806.650000,-392.266000,0.000000
347.114545,9728.196800,-392.266000,0.000000
347.114851,9571.290400,78.453200,235.359600
347.115156,10120.462800,0.000000,706.078800
347.115462,12630.965200,1176.798000,2039.783200
347.115768,9414.384000,941.438400,-549.172400
347.116073,8708.305200,1098.344800,-549.172400
347.116379,11297.260800,1255.251200,0.000000
347.116685,10042.009600,0.000000,0.000000
347.116990,9728.196800,0.000000,0.000000
347.117296,10355.822400,-2196.689600,1333.704400
347.117602,8786.758400,-1176.798000,78.453200
347.117907,10277.369200,-627.625600,0.000000
347.118213,9885.103200,-156.906400,0.000000
347.118519,9335.930800,313.812800,0.000000
347.118824,10748.088400,862.985200,-313.812800
347.119130,10512.728800,1725.970400,-156.906400
347.119436,10120.462800,784.532000,-235.359600
347.119741,9492.837200,156.906400,-941.438400
347.120047,10748.088400,-235.359600,-313.812800
347.120353,9649.743600,-549.172400,-235.359600
347.120658,9649.743600,-862.985200,0.000000
347.120964,10042.009600,-706.078800,470.719200
347.121270,10198.916000,-235.359600,78.453200
347.121575,10120.462800,0.000000,0.000000
347.121881,10512.728800,706.078800,-862.985200
347.122187,9963.556400,549.172400,-549.172400
347.122492,10355.822400,549.172400,-392.266000
347.122798,10042.009600,156.906400,1019.891600
347.123104,10748.088400,-784.532000,235.359600
347.123409,10198.916000,-78.453200,235.359600
347.123715,10198.916000,-862.985200,470.719200
347.124021,10355.822400,-470.719200,0.000000
347.124326,9806.650000,0.000000,-313.812800
347.124632,10042.009600,78.453200,-235.359600
347.124938,10669.635200,862.985200,0.000000
347.125243,9885.103200,313.812800,-549.172400
347.125549,10512.728800,470.719200,-627.625600
347.125855,10042.009600,0.000000,-549.172400
347.126160,10120.462800,0.000000,-313.812800
347.126466,9728.196800,-862.985200,-549.172400
347.126771,9728.196800,0.000000,0.000000
347.127077,10198.916000,-784.532000,156.906400
347.127383,10042.009600,-627.625600,0.000000
347.127688,10120.462800,392.266000,0.000000
347.127994,10120.462800,941.438400,-156.906400
347.128300,10277.369200,313.812800,78.453200
347.128605,9728.196800,156.906400,156.906400
347.128911,10355.822400,313.812800,0.000000
347.129217,10277.369200,156.906400,0.000000
347.129522,9806.650000,-156.906400,235.359600
347.129828,9492.837200,78.453200,-313.812800
347.130134,9806.650000,-156.906400,0.000000
347.130439,9335.930800,-1019.891600,0.000000
347.130745,8708.305200,0.000000,0.000000
347.131051,10277.369200,1098.344800,0.000000
347.131356,9885.103200,156.906400,-392.266000
347.131662,10355.822400,470.719200,0.000000
347.131968,9885.103200,706.078800,0.000000
347.132273,9885.103200,235.359600,0.000000
347.132579,9963.556400,-156.906400,0.000000
347.132885,10042.009600,-470.719200,0.000000
347.133190,10277.369200,-392.266000,549.172400
347.133496,10042.009600,-627.625600,1098.344800
347.133802,10042.009600,-392.266000,1647.517200
347.134107,9649.743600,-313.812800,2118.236400
347.134413,10512.728800,627.625600,2667.408800
347.134719,10512.728800,549.172400,2432.049200
347.135024,9492.837200,784.532000,1176.798000
347.135330,9728.196800,1412.157600,549.172400
347.135636,9728.196800,941.438400,627.625600
347.135941,9257.477600,549.172400,627.625600
347.136247,10120.462800,-235.359600,1333.704400
347.136553,9571.290400,-156.906400,1412.157600
347.136858,10198.916000,-1412.157600,1804.423600
347.137164,10042.009600,-1098.344800,2275.142800
347.137470,9885.103200,-313.812800,2510.502400
347.137775,10355.822400,0.000000,2981.221600
347.138081,9728.196800,862.985200,2588.955600
347.138387,10826.541600,784.532000,3451.940800
347.138692,9885.103200,627.625600,2510.502400
347.138998,10120.462800,549.172400,2039.783200
347.139304,10591.182000,-156.906400,2588.955600
347.139609,10042.009600,-392.266000,2745.862000
347.139915,9885.103200,-706.078800,2824.315200
347.140221,10591.182000,-1176.798000,3373.487600
347.140526,10277.369200,-235.359600,3138.128000
347.140832,9963.556400,-470.719200,3765.753600
347.141138,10120.462800,0.000000,4001.113200
347.141443,10748.088400,0.000000,3844.206800
347.141749,10434.275600,392.266000,4785.645200
347.142055,10277.369200,156.906400,4236.472800
347.142360,10277.369200,-313.812800,4471.832400
347.142666,10198.916000,0.000000,3844.206800
347.142972,10042.009600,-235.359600,3608.847200
347.143277,9571.290400,-862.985200,3373.487600
347.143583,9885.103200,-1412.157600,3216.581200
347.143889,9963.556400,-941.438400,3687.300400
347.144194,10042.009600,-1333.704400,4158.019600
347.144500,9571.290400,-784.532000,4864.098400
347.144806,9885.103200,0.000000,5177.911200
347.145111,10669.635200,78.453200,5727.083600
347.145417,10748.088400,627.625600,5727.083600
347.145723,10591.182000,235.359600,5570.177200
347.146028,9963.556400,313.812800,5491.724000
347.146334,10277.369200,0.000000,5021.004800
347.146640,10198.916000,-392.266000,4864.098400
347.146945,9728.196800,-235.359600,4707.192000
347.147251,10042.009600,-627.625600,4707.192000
347.147557,8237.586000,-1019.891600,4236.472800
347.147862,9806.650000,-392.266000,4550.285600
347.148168,10669.635200,-706.078800,5021.004800
347.148474,10042.009600,313.812800,4942.551600
347.148779,10355.822400,0.000000,5570.177200
347.149085,10434.275600,156.906400,5570.177200
347.149391,10434.275600,235.359600,5570.177200
347.149696,10277.369200,235.359600,5177.911200
347.150002,9963.556400,0.000000,5021.004800
347.150308,10042.009600,0.000000,4079.566400
347.150613,9963.556400,-470.719200,3844.206800
347.150919,9806.650000,-313.812800,3608.847200
347.151225,9806.650000,-392.266000,3844.206800
347.151530,9728.196800,-706.078800,4393.379200
347.151836,10277.369200,-313.812800,5177.911200
347.152142,10434.275600,-392.266000,5021.004800
347.152447,10355.822400,0.000000,5256.364400
347.152753,10591.182000,313.812800,4864.098400
347.153059,10434.275600,549.172400,4393.379200
347.153364,10277.369200,549.172400,3922.660000
347.153670,10277.369200,156.906400,3295.034400
347.153976,9806.650000,-313.812800,2902.768400
347.154281,9649.743600,-549.172400,3059.674800
347.154587,9571.290400,-1019.891600,3138.128000
347.154892,9885.103200,-1098.344800,3059.674800
347.155198,9806.650000,-706.078800,3608.847200
347.155504,10042.009600,-470.719200,3765.753600
347.155809,10120.462800,0.000000,4079.566400
347.156115,10355.822400,156.906400,4079.566400
347.156421,10120.462800,392.266000,3765.753600
347.156726,10042.009600,549.172400,3373.487600
347.157032,10042.009600,313.812800,2824.315200
347.157338,9963.556400,0.000000,2432.049200
347.157643,9963.556400,-549.172400,2196.689600
347.157949,9649.743600,-706.078800,2118.236400
347.158255,9963.556400,-627.625600,2432.049200
347.158560,9257.477600,-862.985200,3059.674800
347.158866,10042.009600,0.000000,2510.502400
347.159172,10277.369200,784.532000,2275.142800
347.159477,10198.916000,470.719200,2824.315200
347.159783,10512.728800,784.532000,2981.221600
347.160089,10355.822400,627.625600,2118.236400
347.160394,10591.182000,549.172400,1804.423600
347.160700,10042.009600,0.000000,1490.610800
347.161006,10120.462800,-313.812800,1412.157600
347.161311,10198.916000,-1176.798000,1412.157600
347.161617,9963.556400,-706.078800,1176.798000
347.161923,9963.556400,-470.719200,1490.610800
347.162228,9885.103200,-156.906400,941.438400
347.162534,10120.462800,78.453200,549.172400
347.162840,10042.009600,862.985200,549.172400
347.163145,10198.916000,313.812800,706.078800
347.163451,10042.009600,470.719200,470.719200
347.163757,10042.009600,156.906400,313.812800
347.164062,10042.009600,0.000000,313.812800
347.164368,9885.103200,-392.266000,235.359600
347.164674,10120.462800,-470.719200,0.000000
347.164979,9885.103200,-627.625600,0.000000
347.165285,9963.556400,-392.266000,0.000000
347.165591,9806.650000,-156.906400,0.000000
347.165896,9885.103200,156.906400,0.000000
347.166202,10042.009600,235.359600,0.000000
347.166508,10277.369200,156.906400,470.719200
347.166813,10277.369200,313.812800,235.359600
347.167119,10512.728800,156.906400,78.453200
347.167425,10355.822400,156.906400,0.000000
347.167730,10277.369200,0.000000,-470.719200
347.168036,9963.556400,-235.359600,-627.625600
347.168342,9806.650000,-313.812800,-392.266000
347.168647,9963.556400,-470.719200,-392.266000
347.168953,9806.650000,-392.266000,0.000000
347.169259,9963.556400,0.000000,0.000000
347.169564,10042.009600,0.000000,0.000000
347.169870,10120.462800,313.812800,0.000000
347.170176,10042.009600,549.172400,0.000000
347.170481,10042.009600,627.625600,0.000000
347.170787,9963.556400,549.172400,0.000000
347.171093,9571.290400,235.359600,470.719200
347.171398,9963.556400,-235.359600,313.812800
347.171704,9885.103200,-549.172400,235.359600
347.172010,10120.462800,-549.172400,470.719200
347.172315,9806.650000,-313.812800,392.266000
347.172621,9571.290400,235.359600,78.453200
347.172927,10042.009600,313.812800,235.359600
347.173232,10042.009600,470.719200,313.812800
347.173538,10042.009600,470.719200,156.906400
347.173844,10198.916000,235.359600,470.719200
347.174149,10277.369200,627.625600,78.453200
347.174455,10042.009600,78.453200,0.000000
347.174761,9885.103200,0.000000,0.000000
347.175066,10042.009600,-392.266000,0.000000
347.175372,9963.556400,-313.812800,156.906400
347.175678,10120.462800,0.000000,627.625600
347.175983,10042.009600,0.000000,156.906400
347.176289,10042.009600,156.906400,392.266000
347.176595,9414.384000,549.172400,78.453200
347.176900,9963.556400,78.453200,392.266000
347.177206,10120.462800,156.906400,78.453200
347.177512,9414.384000,0.000000,235.359600
347.177817,9885.103200,0.000000,235.359600
347.178123,9963.556400,-78.453200,0.000000
347.178429,9414.384000,-313.812800,156.906400
347.178734,10198.916000,0.000000,235.359600
347.179040,9885.103200,0.000000,78.453200
347.179346,9885.103200,0.000000,0.000000
347.179651,10042.009600,0.000000,0.000000
347.179957,9885.103200,156.906400,0.000000
347.180263,10042.009600,549.172400,78.453200
347.180568,10042.009600,235.359600,0.000000
347.180874,9963.556400,313.812800,0.000000
347.181180,9728.196800,78.453200,0.000000
347.181485,9885.103200,0.000000,-156.906400
347.181791,10042.009600,0.000000,78.453200
347.182097,9414.384000,0.000000,0.000000
347.182402,9806.650000,0.000000,78.453200
347.182708,10042.009600,0.000000,0.000000
347.183013,10042.009600,78.453200,-235.359600
347.183319,10042.009600,156.906400,78.453200
347.183625,10042.009600,235.359600,0.000000
347.183930,10120.462800,0.000000,0.000000
347.184236,10042.009600,0.000000,0.000000
347.184542,9963.556400,0.000000,0.000000
347.184847,9885.103200,78.453200,-156.906400
347.185153,10042.009600,-392.266000,-313.812800
347.185459,10042.009600,-235.359600,0.000000
347.185764,9963.556400,-156.906400,0.000000
347.186070,10042.009600,-156.906400,0.000000
347.186376,10120.462800,0.000000,0.000000
347.186681,10120.462800,0.000000,0.000000
347.186987,10042.009600,78.453200,0.000000
347.187293,10042.009600,0.000000,0.000000
347.187598,9963.556400,78.453200,0.000000
347.187904,10042.009600,0.000000,0.000000
347.188210,9728.196800,0.000000,706.078800
347.188515,9806.650000,0.000000,0.000000
347.188821,10042.009600,0.000000,-156.906400
347.189127,9963.556400,-235.359600,-235.359600
347.189432,10042.009600,0.000000,0.000000
347.189738,10042.009600,-156.906400,-549.172400
347.190044,10120.462800,78.453200,0.000000
347.190349,10042.009600,78.453200,-313.812800
347.190655,10198.916000,0.000000,0.000000
347.190961,10198.916000,156.906400,-156.906400
347.191266,10042.009600,235.359600,-392.266000
347.191572,10042.009600,0.000000,0.000000
347.191878,10042.009600,0.000000,-313.812800
347.192183,9885.103200,0.000000,-235.359600
347.192489,9885.103200,0.000000,0.000000
347.192795,9963.556400,0.000000,-235.359600
347.193100,9414.384000,0.000000,78.453200
347.193406,10042.009600,78.453200,0.000000
347.193712,9885.103200,156.906400,0.000000
347.194017,9963.556400,235.359600,-78.453200
347.194323,10042.009600,156.906400,0.000000
347.194629,11218.807600,-235.359600,313.812800
347.194934,10277.369200,78.453200,0.000000
347.195240,10042.009600,78.453200,-627.625600
347.195546,10042.009600,392.266000,-235.359600
347.195851,10042.009600,0.000000,-470.719200
347.196157,9963.556400,78.453200,-1255.251200
347.196463,9100.571200,549.172400,-235.359600
347.196768,10042.009600,-78.453200,-470.719200
347.197074,10042.009600,0.000000,-156.906400
347.197380,10042.009600,235.359600,0.000000
347.197685,10277.369200,78.453200,-392.266000
347.197991,9728.196800,78.453200,-313.812800
347.198297,9728.196800,78.453200,-313.812800
347.198602,9963.556400,0.000000,-313.812800
347.198908,10042.009600,0.000000,-392.266000
347.199214,9728.196800,-156.906400,0.000000
347.199519,10198.916000,0.000000,-313.812800
347.199825,10042.009600,0.000000,-392.266000
347.200131,10042.009600,-156.906400,-392.266000
347.200436,10042.009600,0.000000,-235.359600
347.200742,9963.556400,0.000000,0.000000
347.201048,9806.650000,0.000000,0.000000
347.201353,9963.556400,-235.359600,0.000000
347.201659,9806.650000,0.000000,-235.359600
347.201965,9728.196800,0.000000,-156.906400
347.202270,9885.103200,-156.906400,-392.266000
347.202576,9885.103200,0.000000,-156.906400
347.202882,9728.196800,0.000000,0.000000
347.203187,9963.556400,0.000000,-392.266000
347.203493,9963.556400,78.453200,-313.812800
347.203799,10042.009600,0.000000,-313.812800
347.204104,9963.556400,0.000000,0.000000
347.204410,9963.556400,0.000000,0.000000
347.204716,10120.462800,0.000000,0.000000
347.205021,9963.556400,0.000000,-235.359600
347.205327,10042.009600,0.000000,-156.906400
347.205633,9963.556400,0.000000,-235.359600
347.205938,9728.196800,-392.266000,-313.812800
347.206244,10042.009600,0.000000,-156.906400
347.206550,10120.462800,0.000000,0.000000
347.206855,9963.556400,-235.359600,0.000000
347.207161,10042.009600,0.000000,-313.812800
347.207467,9963.556400,313.812800,156.906400
347.207772,9885.103200,0.000000,0.000000
347.208078,10042.009600,0.000000,78.453200
347.208384,10042.009600,0.000000,0.000000
347.208689,9963.556400,0.000000,0.000000
347.208995,10042.009600,313.812800,-706.078800
347.209301,10042.009600,0.000000,-235.359600
347.209606,9963.556400,0.000000,0.000000
347.209912,10042.009600,78.453200,0.000000
347.210217,9963.556400,235.359600,0.000000
347.210523,9885.103200,627.625600,0.000000
347.210829,9806.650000,0.000000,-235.359600
347.211134,10042.009600,0.000000,0.000000
347.211440,10042.009600,156.906400,0.000000
347.211746,9885.103200,0.000000,0.000000
347.212051,9806.650000,549.172400,235.359600
347.212357,9885.103200,0.000000,0.000000
347.212663,10042.009600,0.000000,-235.359600
347.212968,9963.556400,0.000000,-156.906400
347.213274,9885.103200,78.453200,549.172400
347.213580,10591.182000,-549.172400,0.000000
347.213885,9963.556400,235.359600,156.906400
347.214191,9649.743600,156.906400,1019.891600
347.214497,10904.994800,-470.719200,313.812800
347.214802,10120.462800,235.359600,0.000000
347.215108,9963.556400,78.453200,-706.078800
347.215414,10198.916000,0.000000,0.000000
347.215719,9885.103200,0.000000,-156.906400
347.216025,10042.009600,0.000000,-156.906400
347.216331,10042.009600,0.000000,0.000000
347.216636,10042.009600,0.000000,0.000000
347.216942,10042.009600,-235.359600,0.000000
347.217248,10042.009600,0.000000,0.000000
347.217553,9963.556400,0.000000,-156.906400
347.217859,10120.462800,0.000000,0.000000
347.218165,9806.650000,0.000000,0.000000
347.218470,10042.009600,470.719200,-156.906400
347.218776,10042.009600,0.000000,-313.812800
347.219082,10042.009600,0.000000,0.000000
347.219387,10042.009600,0.000000,0.000000
347.219693,10042.009600,0.000000,0.000000
347.219999,10042.009600,78.453200,78.453200
347.220304,10042.009600,0.000000,-78.453200
347.220610,10042.009600,-156.906400,0.000000
347.220916,10042.009600,0.000000,-156.906400
347.221221,9963.556400,0.000000,0.000000
347.221527,10042.009600,313.812800,313.812800
347.221833,10198.916000,156.906400,0.000000
347.222138,9963.556400,78.453200,0.000000
347.222444,10042.009600,0.000000,-235.359600
347.222750,10042.009600,0.000000,0.000000
347.223055,9963.556400,156.906400,0.000000
347.223361,10042.009600,78.453200,0.000000
347.223667,9885.103200,78.453200,0.000000
347.223972,10042.009600,78.453200,-156.906400
347.224278,9963.556400,156.906400,78.453200
347.224584,9728.196800,313.812800,78.453200
347.224889,10120.462800,392.266000,0.000000
347.225195,10042.009600,0.000000,0.000000
347.225501,9806.650000,0.000000,0.000000
347.225806,10042.009600,0.000000,0.000000
347.226112,9963.556400,0.000000,78.453200
347.226418,9963.556400,156.906400,156.906400
347.226723,9963.556400,78.453200,78.453200
347.227029,10042.009600,0.000000,235.359600
347.227335,9963.556400,156.906400,0.000000
347.227640,9885.103200,156.906400,0.000000
347.227946,9885.103200,235.359600,0.000000
347.228252,9885.103200,0.000000,156.906400
347.228557,9963.556400,0.000000,78.453200
347.228863,10042.009600,0.000000,0.000000
347.229169,9963.556400,0.000000,0.000000
347.229474,10277.369200,-313.812800,235.359600
347.229780,9963.556400,0.000000,0.000000
347.230086,10120.462800,0.000000,0.000000
347.230391,9963.556400,0.000000,0.000000
347.230697,10042.009600,627.625600,78.453200
347.231003,10434.275600,0.000000,235.359600
347.231308,9963.556400,0.000000,0.000000
347.231614,10042.009600,0.000000,-78.453200
347.231920,10434.275600,-235.359600,0.000000
347.232225,9100.571200,78.453200,78.453200
347.232531,10042.009600,0.000000,235.359600
347.232837,9806.650000,-235.359600,0.000000
347.233142,9885.103200,0.000000,78.453200
347.233448,10042.009600,0.000000,78.453200
347.233754,10042.009600,0.000000,0.000000
347.234059,10042.009600,392.266000,0.000000
347.234365,10042.009600,156.906400,0.000000
347.234671,9963.556400,156.906400,0.000000
347.234976,9885.103200,0.000000,78.453200
347.235282,9885.103200,78.453200,156.906400
347.235588,10042.009600,0.000000,392.266000
347.235893,10042.009600,0.000000,313.812800
347.236199,9885.103200,0.000000,78.453200
347.236505,9885.103200,0.000000,156.906400
347.236810,9885.103200,156.906400,0.000000
347.237116,9963.556400,78.453200,78.453200
347.237422,10042.009600,235.359600,0.000000
347.237727,9963.556400,0.000000,78.453200
347.238033,9963.556400,0.000000,78.453200
347.238338,9963.556400,0.000000,78.453200
347.238644,9963.556400,0.000000,235.359600
347.238950,9649.743600,0.000000,392.266000
347.239255,9963.556400,0.000000,0.000000
347.239561,10042.009600,-156.906400,156.906400
347.239867,9963.556400,0.000000,156.906400
347.240172,9885.103200,156.906400,-156.906400
347.240478,10120.462800,0.000000,0.000000
347.240784,9806.650000,0.000000,156.906400
347.241089,9963.556400,0.000000,235.359600
347.241395,10042.009600,0.000000,78.453200
347.241701,9963.556400,0.000000,0.000000
347.242006,10042.009600,313.812800,-235.359600
347.242312,10042.009600,-156.906400,0.000000
347.242618,10120.462800,-156.906400,0.000000
347.242923,9885.103200,0.000000,0.000000
347.243229,9963.556400,0.000000,235.359600
347.243535,10198.916000,156.906400,0.000000
347.243840,9728.196800,78.453200,78.453200
347.244146,9963.556400,0.000000,0.000000
347.244452,9885.103200,156.906400,0.000000
347.244757,10120.462800,0.000000,78.453200
347.245063,10042.009600,0.000000,0.000000
347.245369,10042.009600,-156.906400,156.906400
347.245674,9963.556400,0.000000,78.453200
347.245980,10042.009600,78.453200,78.453200
347.246286,9963.556400,0.000000,0.000000
347.246591,10042.009600,0.000000,0.000000
347.246897,10277.369200,156.906400,0.000000
347.247203,10042.009600,0.000000,78.453200
347.247508,10042.009600,0.000000,235.359600
347.247814,10042.009600,0.000000,78.453200
347.248120,10042.009600,0.000000,0.000000
347.248425,10042.009600,156.906400,-313.812800
347.248731,9963.556400,0.000000,0.000000
347.249037,9335.930800,-313.812800,0.000000
347.249342,9806.650000,0.000000,156.906400
347.249648,10042.009600,549.172400,-156.906400
347.249954,9885.103200,0.000000,941.438400
347.250259,11218.807600,-235.359600,313.812800
347.250565,10042.009600,862.985200,-78.453200
347.250871,10120.462800,235.359600,78.453200
347.251176,10042.009600,0.000000,0.000000
347.251482,9963.556400,0.000000,470.719200
347.251788,9571.290400,0.000000,470.719200
347.252093,10120.462800,0.000000,0.000000
347.252399,10042.009600,0.000000,78.453200
347.252705,10120.462800,0.000000,0.000000
347.253010,10042.009600,-235.359600,78.453200
347.253316,10434.275600,0.000000,0.000000
347.253622,10042.009600,0.000000,0.000000
347.253927,10042.009600,0.000000,0.000000
347.254233,9885.103200,0.000000,0.000000
347.254539,9963.556400,-313.812800,0.000000
347.254844,10042.009600,0.000000,156.906400
347.255150,9806.650000,0.000000,0.000000
347.255456,9963.556400,0.000000,0.000000
347.255761,9963.556400,0.000000,0.000000
347.256067,10120.462800,0.000000,0.000000
347.256373,10120.462800,235.359600,313.812800
347.256678,10042.009600,78.453200,0.000000
347.256984,9885.103200,0.000000,0.000000
347.257290,9963.556400,0.000000,-156.906400
347.257595,10042.009600,0.000000,0.000000
347.257901,10042.009600,-235.359600,-862.985200
347.258207,10120.462800,0.000000,-235.359600
347.258512,9963.556400,-156.906400,313.812800
347.258818,9963.556400,0.000000,0.000000
347.259124,9963.556400,0.000000,0.000000
347.259429,10120.462800,156.906400,0.000000
347.259735,9885.103200,627.625600,549.172400
347.260041,9885.103200,78.453200,78.453200
347.260346,9963.556400,78.453200,0.000000
347.260652,9885.103200,0.000000,0.000000
347.260958,9728.196800,0.000000,-156.906400
347.261263,10120.462800,0.000000,235.359600
347.261569,9963.556400,0.000000,-156.906400
347.261875,10042.009600,0.000000,0.000000
347.262180,9963.556400,0.000000,0.000000
347.262486,9963.556400,0.000000,0.000000
347.262792,10042.009600,235.359600,156.906400
347.263097,9885.103200,78.453200,0.000000
347.263403,9963.556400,78.453200,0.000000
347.263709,10042.009600,78.453200,0.000000
347.264014,9963.556400,0.000000,0.000000
347.264320,10042.009600,0.000000,78.453200
347.264626,9806.650000,0.000000,-235.359600
347.264931,9963.556400,0.000000,-235.359600
347.265237,9963.556400,0.000000,0.000000
347.265543,10042.009600,0.000000,0.000000
347.265848,9963.556400,235.359600,-156.906400
347.266154,9885.103200,0.000000,156.906400
347.266459,10042.009600,0.000000,-156.906400
347.266765,10042.009600,0.000000,0.000000
347.267071,10042.009600,78.453200,235.359600
347.267376,10277.369200,0.000000,0.000000
347.267682,10120.462800,392.266000,0.000000
347.267988,8943.664800,235.359600,0.000000
347.268293,9885.103200,0.000000,-392.266000
347.268599,9963.556400,78.453200,0.000000
347.268905,9257.477600,-78.453200,-235.359600
347.269210,9806.650000,78.453200,0.000000
347.269516,9963.556400,0.000000,0.000000
347.269822,9963.556400,156.906400,0.000000
347.270127,10042.009600,0.000000,-156.906400
347.270433,10042.009600,156.906400,0.000000
347.270739,10042.009600,-549.172400,-156.906400
347.271044,10042.009600,0.000000,-235.359600
347.271350,9885.103200,0.000000,0.000000
347.271656,9963.556400,0.000000,78.453200
347.271961,9963.556400,0.000000,0.000000
347.272267,9963.556400,78.453200,-235.359600
347.272573,9885.103200,0.000000,-156.906400
347.272878,9728.196800,78.453200,0.000000
347.273184,9963.556400,0.000000,-156.906400
347.273490,10042.009600,0.000000,78.453200
347.273795,10355.822400,313.812800,-313.812800
347.274101,9963.556400,0.000000,0.000000
347.274407,10042.009600,78.453200,0.000000
347.274712,9963.556400,0.000000,-313.812800
347.275018,10042.009600,0.000000,-235.359600
347.275324,10277.369200,-392.266000,0.000000
347.275629,10042.009600,0.000000,-313.812800
347.275935,9885.103200,0.000000,78.453200
347.276241,10042.009600,0.000000,0.000000
347.276546,9885.103200,0.000000,0.000000
347.276852,10042.009600,78.453200,156.906400
347.277158,10198.916000,0.000000,-862.985200
347.277463,10042.009600,0.000000,0.000000
347.277769,10042.009600,0.000000,0.000000
347.278075,10042.009600,0.000000,0.000000
347.278380,9806.650000,0.000000,0.000000
347.278686,10277.369200,-235.359600,78.453200
347.278992,9885.103200,0.000000,0.000000
347.279297,9806.650000,156.906400,-235.359600
347.279603,9963.556400,0.000000,0.000000
347.279909,10042.009600,156.906400,0.000000
347.280214,9649.743600,-156.906400,-235.359600
347.280520,10042.009600,0.000000,-313.812800
347.280826,10042.009600,78.453200,0.000000
347.281131,9885.103200,0.000000,0.000000
347.281437,10042.009600,0.000000,-235.359600
347.281743,9806.650000,0.000000,0.000000
347.282048,10042.009600,0.000000,0.000000
347.282354,10042.009600,0.000000,0.000000
347.282660,10042.009600,0.000000,0.000000
347.282965,9963.556400,0.000000,0.000000
347.283271,9963.556400,78.453200,78.453200
347.283577,9806.650000,0.000000,0.000000
347.283882,9963.556400,0.000000,0.000000
347.284188,9885.103200,156.906400,0.000000
347.284494,9885.103200,78.453200,0.000000
347.284799,10355.822400,0.000000,-78.453200
347.285105,9963.556400,-549.172400,-78.453200
347.285411,9963.556400,0.000000,0.000000
347.285716,9649.743600,156.906400,862.985200
347.286022,10904.994800,0.000000,235.359600
347.286328,10120.462800,706.078800,-156.906400
347.286633,9963.556400,-235.359600,0.000000
347.286939,10042.009600,549.172400,0.000000
347.287245,10042.009600,0.000000,0.000000
347.287550,10042.009600,0.000000,0.000000
347.287856,9885.103200,0.000000,0.000000
347.288162,10042.009600,235.359600,-235.359600
347.288467,9963.556400,0.000000,-235.359600
347.288773,9963.556400,-78.453200,0.000000
347.289079,10042.009600,-156.906400,-156.906400
347.289384,10042.009600,0.000000,-235.359600
347.289690,10355.822400,392.266000,-941.438400
347.289996,10120.462800,0.000000,-313.812800
347.290301,9963.556400,156.906400,0.000000
347.290607,9963.556400,156.906400,0.000000
347.290913,10042.009600,0.000000,-156.906400
347.291218,10277.369200,-392.266000,-784.532000
347.291524,9806.650000,0.000000,-156.906400
347.291830,10042.009600,0.000000,0.000000
347.292135,10042.009600,0.000000,0.000000
347.292441,9728.196800,0.000000,0.000000
347.292747,10042.009600,-392.266000,-627.625600
347.293052,9963.556400,156.906400,78.453200
347.293358,9963.556400,156.906400,0.000000
347.293664,10042.009600,0.000000,-156.906400
347.293969,9963.556400,0.000000,78.453200
347.294275,10120.462800,-313.812800,0.000000
347.294580,10042.009600,-78.453200,0.000000
347.294886,9963.556400,0.000000,0.000000
347.295192,10042.009600,0.000000,-156.906400
347.295497,9963.556400,0.000000,0.000000
347.295803,9963.556400,0.000000,0.000000
347.296109,9806.650000,78.453200,0.000000
347.296414,10120.462800,0.000000,0.000000
347.296720,10198.916000,0.000000,0.000000
347.297026,9963.556400,0.000000,0.000000
347.297331,9963.556400,0.000000,0.000000
347.297637,10512.728800,-235.359600,627.625600
347.297943,9963.556400,0.000000,0.000000
347.298248,9963.556400,0.000000,0.000000
347.298554,10042.009600,0.000000,0.000000
347.298860,10042.009600,0.000000,0.000000
347.299165,10120.462800,0.000000,-470.719200
347.299471,10042.009600,-156.906400,0.000000
347.299777,9963.556400,0.000000,78.453200
347.300082,10042.009600,-156.906400,0.000000
347.300388,9963.556400,0.000000,0.000000
347.300694,10277.369200,-392.266000,-549.172400
347.300999,10042.009600,0.000000,0.000000
347.301305,10042.009600,0.000000,0.000000
347.301611,10042.009600,0.000000,-235.359600
347.301916,10042.009600,-313.812800,0.000000
347.302222,10042.009600,470.719200,0.000000
347.302528,9963.556400,-313.812800,0.000000
347.302833,9963.556400,0.000000,0.000000
347.303139,10042.009600,0.000000,235.359600
347.303445,10355.822400,0.000000,-235.359600
347.303750,9100.571200,156.906400,0.000000
347.304056,10198.916000,0.000000,-235.359600
347.304362,9963.556400,78.453200,-627.625600
347.304667,10042.009600,78.453200,549.172400
347.304973,10591.182000,-470.719200,-235.359600
347.305279,10042.009600,0.000000,0.000000
347.305584,9963.556400,0.000000,235.359600
347.305890,9963.556400,0.000000,-235.359600
347.306196,10120.462800,0.000000,0.000000
347.306501,10042.009600,-156.906400,0.000000
347.306807,10120.462800,0.000000,0.000000
347.307113,10198.916000,0.000000,0.000000
347.307418,10042.009600,0.000000,156.906400
347.307724,10042.009600,0.000000,0.000000
347.308030,10042.009600,235.359600,-235.359600
347.308335,10042.009600,0.000000,0.000000
347.308641,10277.369200,78.453200,0.000000
347.308947,9806.650000,0.000000,78.453200
347.309252,10042.009600,0.000000,0.000000
347.309558,9963.556400,0.000000,0.000000
347.309864,9728.196800,0.000000,0.000000
347.310169,10198.916000,0.000000,-549.172400
347.310475,10042.009600,0.000000,0.000000
347.310781,10042.009600,78.453200,78.453200
347.311086,10042.009600,0.000000,0.000000
347.311392,10120.462800,0.000000,0.000000
347.311698,9885.103200,-156.906400,156.906400
347.312003,9885.103200,0.000000,0.000000
347.312309,10042.009600,0.000000,0.000000
347.312615,10042.009600,78.453200,0.000000
347.312920,9885.103200,0.000000,0.000000
347.313226,9963.556400,0.000000,156.906400
347.313532,10042.009600,78.453200,0.000000
347.313837,10042.009600,0.000000,0.000000
347.314143,10042.009600,0.000000,0.000000
347.314449,10120.462800,156.906400,0.000000
347.314754,10042.009600,0.000000,78.453200
347.315060,10591.182000,-392.266000,0.000000
347.315366,9963.556400,0.000000,0.000000
347.315671,9963.556400,0.000000,0.000000
347.315977,9963.556400,0.000000,156.906400
347.316283,10042.009600,0.000000,0.000000
347.316588,10042.009600,235.359600,-549.172400
347.316894,9728.196800,78.453200,78.453200
347.317200,9963.556400,0.000000,78.453200
347.317505,9963.556400,78.453200,235.359600
347.317811,9963.556400,0.000000,156.906400
347.318117,10042.009600,0.000000,0.000000
347.318422,9963.556400,0.000000,0.000000
347.318728,10042.009600,0.000000,0.000000
347.319034,9806.650000,0.000000,78.453200
347.319339,10042.009600,-156.906400,0.000000
347.319645,10042.009600,235.359600,0.000000
347.319951,10042.009600,78.453200,0.000000
347.320256,9963.556400,0.000000,0.000000
347.320562,9963.556400,0.000000,0.000000
347.320868,10120.462800,0.000000,156.906400
347.321173,10042.009600,1176.798000,-78.453200
347.321479,9885.103200,392.266000,549.172400
347.321784,10512.728800,78.453200,392.266000
347.322090,10042.009600,313.812800,78.453200
347.322396,10120.462800,78.453200,0.000000
347.322701,10042.009600,0.000000,0.000000
347.323007,10277.369200,0.000000,-78.453200
347.323313,10042.009600,235.359600,0.000000
347.323618,9885.103200,0.000000,78.453200
347.323924,9885.103200,0.000000,78.453200
347.324230,10042.009600,0.000000,156.906400
347.324535,9571.290400,313.812800,-156.906400
347.324841,9963.556400,0.000000,0.000000
347.325147,10042.009600,-156.906400,0.000000
347.325452,9885.103200,0.000000,156.906400
347.325758,9963.556400,156.906400,78.453200
347.326064,10042.009600,235.359600,156.906400
347.326369,9885.103200,0.000000,156.906400
347.326675,10042.009600,78.453200,0.000000
347.326981,9963.556400,0.000000,0.000000
347.327286,10042.009600,0.000000,0.000000
347.327592,10042.009600,0.000000,78.453200
347.327898,9963.556400,0.000000,-156.906400
347.328203,9728.196800,78.453200,0.000000
347.328509,9963.556400,0.000000,0.000000
347.328815,10042.009600,0.000000,0.000000
347.329120,10042.009600,470.719200,156.906400
347.329426,10120.462800,-392.266000,0.000000
347.329732,10042.009600,156.906400,0.000000
347.330037,10042.009600,0.000000,156.906400
347.330343,9963.556400,0.000000,0.000000
347.330649,10042.009600,156.906400,0.000000
347.330954,10042.009600,-235.359600,78.453200
347.331260,9963.556400,156.906400,0.000000
347.331566,10042.009600,156.906400,-235.359600
347.331871,9963.556400,0.000000,0.000000
347.332177,10042.009600,78.453200,0.000000
347.332483,10120.462800,313.812800,-235.359600
347.332788,10042.009600,0.000000,78.453200
347.333094,10042.009600,156.906400,78.453200
347.333400,10042.009600,0.000000,0.000000
347.333705,9963.556400,0.000000,156.906400
347.334011,10042.009600,156.906400,235.359600
347.334317,10042.009600,313.812800,0.000000
347.334622,10042.009600,0.000000,0.000000
347.334928,9963.556400,0.000000,156.906400
347.335234,9963.556400,0.000000,156.906400
347.335539,10042.009600,0.000000,392.266000
347.335845,10042.009600,0.000000,313.812800
347.336151,9963.556400,0.000000,0.000000
347.336456,9885.103200,0.000000,0.000000
347.336762,9963.556400,78.453200,0.000000
347.337068,10042.009600,156.906400,-627.625600
347.337373,10042.009600,0.000000,0.000000
347.337679,10042.009600,0.000000,0.000000
347.337985,10042.009600,0.000000,-156.906400
347.338290,10042.009600,0.000000,0.000000
347.338596,9885.103200,0.000000,313.812800
347.338902,10042.009600,0.000000,0.000000
347.339207,9963.556400,0.000000,0.000000
347.339513,9414.384000,-78.453200,-156.906400
347.339819,9963.556400,-784.532000,0.000000
347.340124,9963.556400,-78.453200,-392.266000
347.340430,9492.837200,0.000000,1176.798000
347.340736,10042.009600,156.906400,156.906400
347.341041,10042.009600,784.532000,-235.359600
347.341347,9963.556400,0.000000,0.000000
347.341653,9963.556400,313.812800,392.266000
347.341958,10042.009600,156.906400,0.000000
347.342264,10042.009600,0.000000,0.000000
347.342570,9963.556400,0.000000,0.000000
347.342875,10042.009600,0.000000,0.000000
347.343181,9963.556400,156.906400,156.906400
347.343487,10277.369200,78.453200,0.000000
347.343792,9963.556400,0.000000,0.000000
347.344098,9885.103200,0.000000,0.000000
347.344404,9963.556400,156.906400,0.000000
347.344709,9806.650000,0.000000,0.000000
347.345015,10198.916000,313.812800,-941.438400
347.345321,10042.009600,78.453200,0.000000
347.345626,10042.009600,0.000000,0.000000
347.345932,10042.009600,78.453200,0.000000
347.346238,9885.103200,156.906400,0.000000
347.346543,10042.009600,0.000000,470.719200
347.346849,9885.103200,0.000000,0.000000
347.347155,9963.556400,0.000000,0.000000
347.347460,10042.009600,0.000000,-235.359600
347.347766,9885.103200,78.453200,0.000000
347.348072,9885.103200,156.906400,470.719200
347.348377,9806.650000,78.453200,0.000000
347.348683,9885.103200,78.453200,-156.906400
347.348989,9885.103200,0.000000,0.000000
347.349294,10042.009600,0.000000,-156.906400
347.349600,10042.009600,0.000000,0.000000
347.349905,10198.916000,0.000000,235.359600
347.350211,9885.103200,0.000000,0.000000
347.350517,10042.009600,0.000000,0.000000
347.350822,9963.556400,0.000000,0.000000
347.351128,9806.650000,0.000000,0.000000
347.351434,10277.369200,313.812800,235.359600
347.351739,10042.009600,0.000000,0.000000
347.352045,9806.650000,0.000000,0.000000
347.352351,9885.103200,0.000000,0.000000
347.352656,10042.009600,0.000000,0.000000
347.352962,9728.196800,0.000000,235.359600
347.353268,10042.009600,0.000000,78.453200
347.353573,9885.103200,0.000000,0.000000
347.353879,10042.009600,78.453200,-156.906400
347.354185,10042.009600,0.000000,0.000000
347.354490,9963.556400,156.906400,-1098.344800
347.354796,10120.462800,0.000000,0.000000
347.355102,10042.009600,0.000000,0.000000
347.355407,10042.009600,0.000000,-156.906400
347.355713,9963.556400,78.453200,0.000000
347.356019,9963.556400,78.453200,0.000000
347.356324,10748.088400,0.000000,392.266000
347.356630,10042.009600,0.000000,0.000000
347.356936,9963.556400,156.906400,-156.906400
347.357241,9728.196800,78.453200,0.000000
347.357547,10042.009600,235.359600,235.359600
347.357853,9492.837200,0.000000,235.359600
347.358158,10277.369200,-156.906400,0.000000
347.358464,9414.384000,-78.453200,0.000000
347.358770,9571.290400,0.000000,0.000000
347.359075,9728.196800,0.000000,-706.078800
347.359381,9806.650000,392.266000,-313.812800
347.359687,10042.009600,0.000000,0.000000
347.359992,9963.556400,0.000000,0.000000
347.360298,9885.103200,0.000000,0.000000
347.360604,10120.462800,0.000000,0.000000
347.360909,10042.009600,0.000000,0.000000
347.361215,10042.009600,313.812800,0.000000
347.361521,10042.009600,0.000000,-313.812800
347.361826,9806.650000,0.000000,0.000000
347.362132,9806.650000,0.000000,0.000000
347.362438,9963.556400,0.000000,-156.906400
347.362743,10042.009600,78.453200,235.359600
347.363049,10042.009600,0.000000,0.000000
347.363355,10042.009600,0.000000,0.000000
347.363660,9806.650000,78.453200,0.000000
347.363966,10042.009600,0.000000,0.000000
347.364272,9571.290400,235.359600,0.000000
347.364577,9963.556400,0.000000,0.000000
347.364883,9806.650000,0.000000,0.000000
347.365189,9963.556400,0.000000,0.000000
347.365494,10042.009600,0.000000,0.000000
347.365800,9335.930800,313.812800,0.000000
347.366106,9649.743600,78.453200,0.000000
347.366411,9885.103200,-235.359600,0.000000
347.366717,9963.556400,0.000000,0.000000
347.367023,10042.009600,0.000000,0.000000
347.367328,9571.290400,235.359600,0.000000
347.367634,10042.009600,0.000000,0.000000
347.367940,10042.009600,78.453200,-156.906400
347.368245,9963.556400,0.000000,0.000000
347.368551,9885.103200,0.000000,0.000000
347.368857,9963.556400,0.000000,549.172400
347.369162,9963.556400,0.000000,0.000000
347.369468,9963.556400,0.000000,0.000000
347.369774,9963.556400,0.000000,0.000000
347.370079,9963.556400,0.000000,0.000000
347.370385,9963.556400,0.000000,0.000000
347.370691,10512.728800,0.000000,392.266000
347.370996,10042.009600,78.453200,0.000000
347.371302,10042.009600,78.453200,0.000000
347.371608,10042.009600,0.000000,-313.812800
347.371913,9963.556400,0.000000,0.000000
347.372219,9885.103200,0.000000,0.000000
347.372525,10042.009600,0.000000,0.000000
347.372830,10042.009600,0.000000,0.000000
347.373136,10042.009600,0.000000,0.000000
347.373442,10042.009600,0.000000,-156.906400
347.373747,10042.009600,-156.906400,0.000000
347.374053,9885.103200,0.000000,156.906400
347.374359,9963.556400,0.000000,0.000000
347.374664,10042.009600,0.000000,0.000000
347.374970,9963.556400,0.000000,0.000000
347.375276,9963.556400,235.359600,862.985200
347.375581,10826.541600,-470.719200,0.000000
347.375887,10042.009600,1098.344800,-78.453200
347.376193,9885.103200,78.453200,0.000000
347.376498,10355.822400,78.453200,156.906400
347.376804,10512.728800,470.719200,-235.359600
347.377110,9963.556400,0.000000,0.000000
347.377415,10042.009600,0.000000,-156.906400
347.377721,9963.556400,0.000000,78.453200
347.378026,9963.556400,78.453200,0.000000
347.378332,10042.009600,0.000000,0.000000
347.378638,9885.103200,78.453200,-235.359600
347.378943,10042.009600,0.000000,0.000000
347.379249,9963.556400,0.000000,-156.906400
347.379555,10042.009600,0.000000,0.000000
347.379860,9728.196800,78.453200,0.000000
347.380166,10042.009600,0.000000,235.359600
347.380472,9728.196800,0.000000,0.000000
347.380777,9806.650000,78.453200,0.000000
347.381083,9885.103200,0.000000,0.000000
347.381389,9963.556400,0.000000,0.000000
347.381694,10434.275600,-235.359600,78.453200
347.382000,10042.009600,0.000000,-156.906400
347.382306,9963.556400,0.000000,0.000000
347.382611,10120.462800,0.000000,0.000000
347.382917,9885.103200,156.906400,0.000000
347.383223,10042.009600,-549.172400,0.000000
347.383528,10042.009600,0.000000,0.000000
347.383834,9963.556400,0.000000,-156.906400
347.384140,9885.103200,0.000000,0.000000
347.384445,9963.556400,0.000000,0.000000
347.384751,9885.103200,78.453200,627.625600
347.385057,9963.556400,0.000000,156.906400
347.385362,9806.650000,0.000000,-235.359600
347.385668,9963.556400,0.000000,0.000000
347.385974,10120.462800,-313.812800,0.000000
347.386279,10277.369200,549.172400,470.719200
347.386585,9885.103200,0.000000,-156.906400
347.386891,10042.009600,-235.359600,0.000000
347.387196,9963.556400,0.000000,156.906400
347.387502,9963.556400,0.000000,0.000000
347.387808,9963.556400,862.985200,156.906400
347.388113,10042.009600,0.000000,0.000000
347.388419,10042.009600,78.453200,-235.359600
347.388725,9885.103200,0.000000,0.000000
347.389030,9963.556400,0.000000,0.000000
347.389336,9728.196800,156.906400,-235.359600
347.389642,10042.009600,0.000000,0.000000
347.389947,9963.556400,78.453200,0.000000
347.390253,9963.556400,0.000000,0.000000
347.390559,10042.009600,0.000000,0.000000
347.390864,10042.009600,0.000000,78.453200
347.391170,9885.103200,78.453200,392.266000
347.391476,9885.103200,235.359600,0.000000
347.391781,10042.009600,0.000000,0.000000
347.392087,9885.103200,156.906400,0.000000
347.392393,9885.103200,0.000000,0.000000
347.392698,9963.556400,-156.906400,78.453200
347.393004,10042.009600,0.000000,0.000000
347.393310,9806.650000,0.000000,156.906400
347.393615,10042.009600,0.000000,-78.453200
347.393921,9885.103200,0.000000,0.000000
347.394227,9100.571200,78.453200,549.172400
347.394532,9963.556400,-549.172400,-78.453200
347.394838,9963.556400,0.000000,235.359600
347.395144,10198.916000,0.000000,784.532000
347.395449,10042.009600,0.000000,156.906400
347.395755,9806.650000,0.000000,0.000000
347.396061,10042.009600,0.000000,-235.359600
347.396366,10042.009600,0.000000,156.906400
347.396672,9963.556400,0.000000,0.000000
347.396978,10042.009600,0.000000,0.000000
347.397283,9963.556400,78.453200,-313.812800
347.397589,9649.743600,0.000000,313.812800
347.397895,10042.009600,0.000000,0.000000
347.398200,10042.009600,0.000000,0.000000
347.398506,10042.009600,0.000000,0.000000
347.398812,10042.009600,0.000000,-235.359600
347.399117,10120.462800,78.453200,156.906400
347.399423,9963.556400,0.000000,0.000000
347.399729,9806.650000,156.906400,0.000000
347.400034,9963.556400,78.453200,0.000000
347.400340,10042.009600,0.000000,0.000000
347.400646,9728.196800,470.719200,235.359600
347.400951,9963.556400,156.906400,0.000000
347.401257,9963.556400,0.000000,0.000000
347.401563,9963.556400,78.453200,0.000000
347.401868,10042.009600,0.000000,78.453200
347.402174,10120.462800,0.000000,313.812800
347.402480,10042.009600,0.000000,78.453200
347.402785,9963.556400,0.000000,0.000000
347.403091,9885.103200,0.000000,0.000000
347.403397,9963.556400,0.000000,0.000000
347.403702,10042.009600,-235.359600,0.000000
347.404008,9885.103200,0.000000,235.359600
347.404314,9885.103200,0.000000,0.000000
347.404619,10042.009600,0.000000,0.000000
347.404925,9885.103200,0.000000,78.453200
347.405231,10120.462800,156.906400,0.000000
347.405536,10042.009600,0.000000,0.000000
347.405842,10120.462800,0.000000,0.000000
347.406147,9963.556400,0.000000,0.000000
347.406453,10042.009600,0.000000,0.000000
347.406759,9963.556400,0.000000,549.172400
347.407064,10042.009600,0.000000,78.453200
347.407370,9728.196800,78.453200,0.000000
347.407676,9885.103200,0.000000,0.000000
347.407981,10042.009600,0.000000,0.000000
347.408287,9885.103200,0.000000,78.453200
347.408593,9728.196800,0.000000,0.000000
347.408898,9806.650000,78.453200,0.000000
347.409204,9963.556400,0.000000,0.000000
347.409510,9963.556400,156.906400,0.000000
347.409815,9963.556400,0.000000,78.453200
347.410121,10042.009600,-156.906400,-235.359600
347.410427,10042.009600,0.000000,78.453200
347.410732,9885.103200,0.000000,78.453200
347.411038,10042.009600,0.000000,0.000000
347.411344,10042.009600,78.453200,0.000000
347.411649,9885.103200,313.812800,392.266000
347.411955,10277.369200,78.453200,0.000000
347.412261,10042.009600,78.453200,156.906400
347.412566,9885.103200,0.000000,235.359600
347.412872,10355.822400,0.000000,-78.453200
347.413178,9885.103200,0.000000,313.812800
347.413483,10042.009600,-313.812800,235.359600
347.413789,9963.556400,0.000000,0.000000
347.414095,10042.009600,0.000000,0.000000
347.414400,10042.009600,0.000000,0.000000
347.414706,9885.103200,0.000000,0.000000
347.415012,10120.462800,0.000000,78.453200
347.415317,10042.009600,0.000000,0.000000
347.415623,10042.009600,78.453200,156.906400
347.415929,10042.009600,0.000000,156.906400
347.416234,10042.009600,0.000000,0.000000
347.416540,10120.462800,235.359600,0.000000
347.416846,9963.556400,0.000000,0.000000
347.417151,9885.103200,0.000000,0.000000
347.417457,9885.103200,-156.906400,-156.906400
347.417763,10042.009600,0.000000,0.000000
347.418068,9649.743600,862.985200,0.000000
347.418374,9963.556400,0.000000,0.000000
347.418680,10042.009600,78.453200,0.000000
347.418985,10042.009600,0.000000,78.453200
347.419291,10042.009600,0.000000,0.000000
347.419597,9728.196800,0.000000,235.359600
347.419902,9963.556400,0.000000,0.000000
347.420208,9885.103200,0.000000,235.359600
347.420514,10042.009600,0.000000,78.453200
347.420819,9963.556400,0.000000,-156.906400
347.421125,9885.103200,0.000000,156.906400
347.421431,10042.009600,-156.906400,-235.359600
347.421736,9885.103200,0.000000,0.000000
347.422042,10042.009600,0.000000,0.000000
347.422348,10042.009600,78.453200,0.000000
347.422653,10042.009600,0.000000,0.000000
347.422959,10277.369200,-156.906400,470.719200
347.423265,9885.103200,0.000000,-156.906400
347.423570,9963.556400,0.000000,78.453200
347.423876,10042.009600,0.000000,0.000000
347.424182,10042.009600,0.000000,78.453200
347.424487,9728.196800,0.000000,78.453200
347.424793,9885.103200,0.000000,-313.812800
347.425099,9885.103200,0.000000,0.000000
347.425404,10042.009600,0.000000,0.000000
347.425710,10042.009600,0.000000,0.000000
347.426016,9963.556400,549.172400,235.359600
347.426321,10042.009600,78.453200,0.000000
347.426627,9885.103200,0.000000,0.000000
347.426933,9885.103200,0.000000,0.000000
347.427238,9963.556400,0.000000,0.000000
347.427544,10748.088400,-235.359600,0.000000
347.427850,9963.556400,0.000000,156.906400
347.428155,10042.009600,0.000000,0.000000
347.428461,9963.556400,0.000000,0.000000
347.428767,10120.462800,0.000000,0.000000
347.429072,10120.462800,235.359600,0.000000
347.429378,9885.103200,0.000000,0.000000
347.429684,10042.009600,235.359600,-862.985200
347.429989,9571.290400,-78.453200,1019.891600
347.430295,11061.901200,-313.812800,156.906400
347.430601,9963.556400,1176.798000,78.453200
347.430906,9806.650000,470.719200,235.359600
347.431212,10120.462800,78.453200,-156.906400
347.431518,9963.556400,0.000000,0.000000
347.431823,9885.103200,0.000000,0.000000
347.432129,10120.462800,0.000000,549.172400
347.432435,9963.556400,0.000000,235.359600
347.432740,9963.556400,0.000000,78.453200
347.433046,9963.556400,0.000000,0.000000
347.433351,10042.009600,0.000000,78.453200
347.433657,9963.556400,0.000000,0.000000
347.433963,10198.916000,-392.266000,313.812800
347.434268,10042.009600,0.000000,0.000000
347.434574,9963.556400,78.453200,0.000000
347.434880,9885.103200,0.000000,0.000000
347.435185,10198.916000,-156.906400,78.453200
347.435491,10198.916000,78.453200,0.000000
347.435797,10042.009600,0.000000,-235.359600
347.436102,10120.462800,0.000000,0.000000
347.436408,10042.009600,0.000000,-156.906400
347.436714,10042.009600,-235.359600,78.453200
347.437019,9963.556400,235.359600,0.000000
347.437325,9728.196800,0.000000,0.000000
347.437631,9885.103200,0.000000,-156.906400
347.437936,9885.103200,78.453200,0.000000
347.438242,9885.103200,0.000000,0.000000
347.438548,10042.009600,-156.906400,0.000000
347.438853,10042.009600,0.000000,-235.359600
347.439159,9885.103200,0.000000,78.453200
347.439465,9885.103200,0.000000,78.453200
347.439770,10042.009600,0.000000,0.000000
347.440076,9963.556400,78.453200,-706.078800
347.440382,9885.103200,0.000000,0.000000
347.440687,9963.556400,0.000000,0.000000
347.440993,9963.556400,0.000000,0.000000
347.441299,9963.556400,0.000000,0.000000
347.441604,9806.650000,78.453200,0.000000
347.441910,10042.009600,0.000000,0.000000
347.442216,10042.009600,78.453200,0.000000
347.442521,9963.556400,0.000000,0.000000
347.442827,9963.556400,0.000000,0.000000
347.443133,10434.275600,0.000000,78.453200
347.443438,10042.009600,0.000000,0.000000
347.443744,10042.009600,0.000000,0.000000
347.444050,9963.556400,0.000000,-235.359600
347.444355,9963.556400,0.000000,0.000000
347.444661,10355.822400,-235.359600,0.000000
347.444967,10277.369200,-235.359600,0.000000
347.445272,9885.103200,0.000000,0.000000
347.445578,9806.650000,78.453200,0.000000
347.445884,10042.009600,0.000000,0.000000
347.446189,9885.103200,0.000000,-313.812800
347.446495,10355.822400,-235.359600,0.000000
347.446801,9885.103200,0.000000,0.000000
347.447106,10042.009600,0.000000,0.000000
347.447412,10042.009600,0.000000,0.000000
347.447718,9806.650000,0.000000,0.000000
347.448023,8786.758400,392.266000,78.453200
347.448329,9885.103200,0.000000,-235.359600
347.448635,10120.462800,-470.719200,0.000000
347.448940,9179.024400,-78.453200,0.000000
347.449246,9649.743600,0.000000,235.359600
347.449552,10042.009600,78.453200,0.000000
347.449857,10042.009600,0.000000,0.000000
347.450163,10042.009600,0.000000,0.000000
347.450469,9963.556400,0.000000,-235.359600
347.450774,9963.556400,0.000000,0.000000
347.451080,10042.009600,235.359600,78.453200
347.451386,9885.103200,0.000000,0.000000
347.451691,9885.103200,0.000000,0.000000
347.451997,10042.009600,78.453200,0.000000
347.452303,9885.103200,0.000000,-156.906400
347.452608,10198.916000,0.000000,-235.359600
347.452914,10042.009600,-235.359600,-156.906400
347.453220,10042.009600,-313.812800,0.000000
347.453525,10042.009600,0.000000,0.000000
347.453831,10120.462800,0.000000,-313.812800
347.454137,10042.009600,0.000000,-235.359600
347.454442,10042.009600,156.906400,-235.359600
347.454748,9963.556400,0.000000,0.000000
347.455054,10042.009600,0.000000,78.453200
347.455359,9885.103200,78.453200,0.000000
347.455665,10042.009600,-156.906400,78.453200
347.455971,10042.009600,78.453200,-156.906400
347.456276,9885.103200,156.906400,-156.906400
347.456582,9885.103200,0.000000,0.000000
347.456888,9885.103200,0.000000,0.000000
347.457193,10120.462800,0.000000,0.000000
