##drops=0,overflows=0,time_per_sample=0.000305599,start_range=0.000057,end_range=0.000031
#time,accel_x,accel_y,accel_z
363.181233,10042.009600,0.000000,0.000000
363.181538,9885.103200,0.000000,-784.532000
363.181844,9963.556400,0.000000,549.172400
363.182149,10591.182000,-706.078800,-235.359600
363.182455,9963.556400,549.172400,-392.266000
363.182761,9963.556400,156.906400,-78.453200
363.183066,10904.994800,78.453200,-156.906400
363.183372,10042.009600,1098.344800,-1490.610800
363.183677,9885.103200,1176.798000,-2039.783200
363.183983,9728.196800,1176.798000,-1804.423600
363.184289,9728.196800,1961.330000,-2432.049200
363.184594,10042.009600,1647.517200,-2667.408800
363.184900,9728.196800,1490.610800,-2510.502400
363.185205,9806.650000,1490.610800,-2275.142800
363.185511,9963.556400,1490.610800,-2118.236400
363.185816,10042.009600,1569.064000,-1882.876800
363.186122,9963.556400,1725.970400,-2118.236400
363.186428,10042.009600,2353.596000,-2353.596000
363.186733,9885.103200,2588.955600,-3216.581200
363.187039,9885.103200,3295.034400,-4236.472800
363.187344,9571.290400,4079.566400,-5099.458000
363.187650,9571.290400,3922.660000,-5413.270800
363.187956,9649.743600,3608.847200,-5334.817600
363.188261,9257.477600,3530.394000,-5491.724000
363.188567,9335.930800,3059.674800,-5256.364400
363.188872,9414.384000,2667.408800,-4785.645200
363.189178,9806.650000,3059.674800,-4785.645200
363.189484,10042.009600,3844.206800,-5334.817600
363.189789,9728.196800,4314.926000,-5648.630400
363.190095,9885.103200,4550.285600,-6040.896400
363.190400,9963.556400,4707.192000,-6119.349600
363.190706,9963.556400,4314.926000,-6040.896400
363.191012,10826.541600,4079.566400,-5491.724000
363.191317,10512.728800,4079.566400,-5021.004800
363.191623,9335.930800,3216.581200,-5021.004800
363.191928,10355.822400,4158.019600,-5413.270800
363.192234,10748.088400,5099.458000,-5727.083600
363.192540,9414.384000,5648.630400,-5727.083600
363.192845,9492.837200,6197.802800,-7060.788000
363.193151,10042.009600,6040.896400,-6982.334800
363.193456,9571.290400,5021.004800,-6433.162400
363.193762,10042.009600,5256.364400,-5962.443200
363.194068,9257.477600,5099.458000,-5648.630400
363.194373,10434.275600,5177.911200,-5727.083600
363.194679,9963.556400,5648.630400,-5962.443200
363.194984,10120.462800,5727.083600,-6433.162400
363.195290,9335.930800,6668.522000,-7609.960400
363.195596,9492.837200,6825.428400,-7688.413600
363.195901,9414.384000,6903.881600,-7139.241200
363.196207,10042.009600,7374.600800,-7060.788000
363.196512,10120.462800,6825.428400,-6746.975200
363.196818,10198.916000,6433.162400,-5648.630400
363.197124,10198.916000,6668.522000,-4942.551600
363.197429,11454.167200,6276.256000,-4550.285600
363.197735,10512.728800,8002.226400,-4471.832400
363.198040,10198.916000,7923.773200,-3844.206800
363.198346,10198.916000,8237.586000,-3922.660000
363.198652,10512.728800,8551.398800,-4079.566400
363.198957,9728.196800,9179.024400,-3530.394000
363.199263,10198.916000,8865.211600,-4158.019600
363.199568,10748.088400,8080.679600,-3451.940800
363.199874,11061.901200,7531.507200,-2667.408800
363.200180,9963.556400,7060.788000,-2196.689600
363.200485,9963.556400,7531.507200,-2510.502400
363.200791,10669.635200,7217.694400,-1333.704400
363.201096,9806.650000,6903.881600,-941.438400
363.201402,9963.556400,7217.694400,-784.532000
363.201708,9963.556400,7609.960400,-627.625600
363.202013,9806.650000,7453.054000,-784.532000
363.202319,10198.916000,7688.413600,-784.532000
363.202624,9492.837200,7374.600800,-1019.891600
363.202930,10198.916000,6354.709200,-1019.891600
363.203236,10434.275600,6511.615600,-784.532000
363.203541,10355.822400,5805.536800,-392.266000
363.203847,10826.541600,5256.364400,0.000000
363.204152,10120.462800,5413.270800,0.000000
363.204458,10042.009600,4314.926000,313.812800
363.204764,11140.354400,4707.192000,627.625600
363.205069,9963.556400,5099.458000,549.172400
363.205375,9728.196800,4864.098400,941.438400
363.205680,10042.009600,3765.753600,706.078800
363.205986,9963.556400,3216.581200,549.172400
363.206292,10120.462800,2745.862000,470.719200
363.206597,9179.024400,2981.221600,-156.906400
363.206903,9963.556400,2510.502400,78.453200
363.207208,9963.556400,1176.798000,627.625600
363.207514,10198.916000,0.000000,1569.064000
363.207820,10355.822400,-706.078800,2039.783200
363.208125,10042.009600,-470.719200,2510.502400
363.208431,9492.837200,-156.906400,3451.940800
363.208736,10904.994800,-235.359600,2981.221600
363.209042,10042.009600,-549.172400,2902.768400
363.209348,10434.275600,-706.078800,3295.034400
363.209653,10748.088400,-1647.517200,3373.487600
363.209959,10277.369200,-2275.142800,2902.768400
363.210264,10434.275600,-1569.064000,2353.596000
363.210570,10434.275600,-2432.049200,2353.596000
363.210876,9806.650000,-2902.768400,2432.049200
363.211181,10826.541600,-2902.768400,2981.221600
363.211487,9885.103200,-3373.487600,2824.315200
363.211792,10042.009600,-3216.581200,2824.315200
363.212098,9806.650000,-3687.300400,3216.581200
363.212404,10042.009600,-3844.206800,2981.221600
363.212709,10277.369200,-3295.034400,2510.502400
363.213015,10042.009600,-3216.581200,2588.955600
363.213320,10277.369200,-3295.034400,2118.236400
363.213626,10355.822400,-2667.408800,1333.704400
363.213932,9335.930800,-2824.315200,862.985200
363.214237,9806.650000,-3295.034400,941.438400
363.214543,10042.009600,-3608.847200,1255.251200
363.214848,10277.369200,-4471.832400,1569.064000
363.215154,9649.743600,-3922.660000,1961.330000
363.215460,10042.009600,-3059.674800,1882.876800
363.215765,9728.196800,-3530.394000,1804.423600
363.216071,10277.369200,-3138.128000,1725.970400
363.216376,10198.916000,-2824.315200,1333.704400
363.216682,10591.182000,-2824.315200,1255.251200
363.216988,9885.103200,-2510.502400,862.985200
363.217293,10904.994800,-1882.876800,392.266000
363.217599,9100.571200,-2588.955600,549.172400
363.217904,9806.650000,-2353.596000,0.000000
363.218210,10198.916000,-2275.142800,-235.359600
363.218516,10198.916000,-3844.206800,941.438400
363.218821,11297.260800,-1647.517200,-156.906400
363.219127,8865.211600,-2510.502400,-392.266000
363.219432,11846.433200,-3922.660000,235.359600
363.219738,9963.556400,-2196.689600,392.266000
363.220044,8629.852000,-2981.221600,-235.359600
363.220349,10983.448000,-1098.344800,-706.078800
363.220655,9335.930800,-1412.157600,-784.532000
363.220960,10042.009600,-2510.502400,-784.532000
363.221266,9885.103200,-2432.049200,-1255.251200
363.221572,9179.024400,-2824.315200,-1255.251200
363.221877,9806.650000,-2667.408800,-1176.798000
363.222183,9022.118000,-2510.502400,-1176.798000
363.222488,8786.758400,-2981.221600,-1255.251200
363.222794,9571.290400,-3373.487600,-784.532000
363.223100,9022.118000,-3138.128000,-784.532000
363.223405,10042.009600,-2745.862000,-941.438400
363.223711,9571.290400,-3295.034400,-941.438400
363.224016,9649.743600,-2510.502400,-1019.891600
363.224322,10042.009600,-2902.768400,0.000000
363.224628,10042.009600,-3373.487600,-941.438400
363.224933,9885.103200,-2745.862000,-1098.344800
363.225239,9728.196800,-3451.940800,-1019.891600
363.225544,9963.556400,-3451.940800,-784.532000
363.225850,9492.837200,-3765.753600,-470.719200
363.226156,9728.196800,-4079.566400,-627.625600
363.226461,9885.103200,-3687.300400,-156.906400
363.226767,9885.103200,-3765.753600,0.000000
363.227072,9885.103200,-3530.394000,-313.812800
363.227378,9492.837200,-3138.128000,-156.906400
363.227684,9885.103200,-3138.128000,-862.985200
363.227989,9728.196800,-3530.394000,-549.172400
363.228295,9728.196800,-3373.487600,-549.172400
363.228600,9414.384000,-2824.315200,-706.078800
363.228906,9649.743600,-3451.940800,-549.172400
363.229212,10042.009600,-3530.394000,-235.359600
363.229517,9806.650000,-2981.221600,78.453200
363.229823,10042.009600,-2588.955600,0.000000
363.230128,9649.743600,-2353.596000,-156.906400
363.230434,9885.103200,-2196.689600,0.000000
363.230740,10591.182000,-1725.970400,627.625600
363.231045,9649.743600,-1255.251200,78.453200
363.231351,10355.822400,-1098.344800,156.906400
363.231656,10120.462800,-784.532000,156.906400
363.231962,10042.009600,-862.985200,313.812800
363.232268,10512.728800,-941.438400,0.000000
363.232573,9649.743600,-235.359600,0.000000
363.232879,11532.620400,78.453200,1019.891600
363.233184,8786.758400,627.625600,-392.266000
363.233490,10277.369200,313.812800,627.625600
363.233796,10434.275600,1804.423600,549.172400
363.234101,9963.556400,1255.251200,78.453200
363.234407,9728.196800,1804.423600,0.000000
363.234712,10434.275600,2353.596000,627.625600
363.235018,9492.837200,1961.330000,78.453200
363.235324,10120.462800,2510.502400,1176.798000
363.235629,8786.758400,2902.768400,706.078800
363.235935,9806.650000,2510.502400,392.266000
363.236240,9571.290400,2981.221600,313.812800
363.236546,9492.837200,2902.768400,862.985200
363.236852,9806.650000,2667.408800,1176.798000
363.237157,10042.009600,3687.300400,784.532000
363.237463,9335.930800,3138.128000,862.985200
363.237768,11061.901200,3687.300400,2039.783200
363.238074,10277.369200,3608.847200,1412.157600
363.238380,10042.009600,3530.394000,941.438400
363.238685,10512.728800,3216.581200,784.532000
363.238991,13101.684400,5021.004800,1647.517200
363.239296,10512.728800,4158.019600,392.266000
363.239602,9022.118000,3922.660000,706.078800
363.239908,10434.275600,3608.847200,627.625600
363.240213,10669.635200,3059.674800,1490.610800
363.240519,9414.384000,2745.862000,470.719200
363.240824,10748.088400,3373.487600,549.172400
363.241130,10042.009600,3059.674800,0.000000
363.241436,10198.916000,3059.674800,156.906400
363.241741,10669.635200,2196.689600,470.719200
363.242047,10277.369200,2353.596000,235.359600
363.242352,10120.462800,3138.128000,235.359600
363.242658,10042.009600,2432.049200,235.359600
363.242964,10512.728800,2353.596000,-235.359600
363.243269,10277.369200,2275.142800,0.000000
363.243575,9963.556400,2039.783200,-470.719200
363.243880,10277.369200,1725.970400,-706.078800
363.244186,10434.275600,1412.157600,-470.719200
363.244492,10355.822400,1569.064000,-392.266000
363.244797,10512.728800,1490.610800,-235.359600
363.245103,10591.182000,1490.610800,-1019.891600
363.245408,10826.541600,1098.344800,-392.266000
363.245714,11218.807600,784.532000,-313.812800
363.246020,10120.462800,549.172400,-784.532000
363.246325,10904.994800,862.985200,-784.532000
363.246631,10591.182000,1176.798000,-1176.798000
363.246936,11297.260800,549.172400,-627.625600
363.247242,9963.556400,941.438400,-1019.891600
363.247547,10748.088400,235.359600,-941.438400
363.247853,10198.916000,470.719200,-941.438400
363.248159,10748.088400,1019.891600,-784.532000
363.248464,10355.822400,941.438400,-784.532000
363.248770,10198.916000,1176.798000,-1019.891600
363.249075,10355.822400,706.078800,-1176.798000
363.249381,10198.916000,941.438400,-1412.157600
363.249687,9963.556400,1098.344800,-1490.610800
363.249992,9571.290400,392.266000,-1412.157600
363.250298,10355.822400,1490.610800,-1176.798000
363.250603,10120.462800,1725.970400,-941.438400
363.250909,10042.009600,706.078800,-706.078800
363.251215,10355.822400,1176.798000,-1019.891600
363.251520,10042.009600,1725.970400,-1490.610800
363.251826,10042.009600,1176.798000,-1412.157600
363.252131,10042.009600,1569.064000,-1019.891600
363.252437,10277.369200,1098.344800,-1019.891600
363.252743,9728.196800,1569.064000,-1176.798000
363.253048,10042.009600,706.078800,-1098.344800
363.253354,10042.009600,1098.344800,-941.438400
363.253659,11061.901200,156.906400,-313.812800
363.253965,9963.556400,156.906400,-706.078800
363.254271,10042.009600,235.359600,-627.625600
363.254576,10042.009600,-78.453200,0.000000
363.254882,10355.822400,156.906400,0.000000
363.255187,10120.462800,470.719200,0.000000
363.255493,10042.009600,1098.344800,0.000000
363.255799,10355.822400,941.438400,-470.719200
363.256104,9571.290400,706.078800,-235.359600
363.256410,10120.462800,0.000000,0.000000
363.256715,10355.822400,-313.812800,78.453200
363.257021,9571.290400,-1412.157600,-235.359600
363.257327,9649.743600,-313.812800,-235.359600
363.257632,9571.290400,-1098.344800,-313.812800
363.257938,10198.916000,-1255.251200,-1176.798000
363.258243,9571.290400,-1255.251200,-549.172400
363.258549,9335.930800,-1725.970400,-706.078800
363.258855,9728.196800,-1412.157600,-470.719200
363.259160,9335.930800,-1804.423600,-549.172400
363.259466,9257.477600,-1804.423600,78.453200
363.259771,9806.650000,-1882.876800,78.453200
363.260077,9414.384000,-2510.502400,470.719200
363.260383,10120.462800,-2196.689600,784.532000
363.260688,10277.369200,-2275.142800,235.359600
363.260994,9963.556400,-2432.049200,392.266000
363.261299,10042.009600,-2118.236400,156.906400
363.261605,10355.822400,-2275.142800,313.812800
363.261911,10277.369200,-2196.689600,470.719200
363.262216,10198.916000,-2745.862000,1098.344800
363.262522,10748.088400,-3451.940800,1098.344800
363.262827,10198.916000,-2745.862000,1490.610800
363.263133,9806.650000,-3216.581200,1176.798000
363.263439,10355.822400,-2275.142800,1333.704400
363.263744,11924.886400,-470.719200,1176.798000
363.264050,10277.369200,-1725.970400,941.438400
363.264355,9100.571200,-1961.330000,0.000000
363.264661,10669.635200,-1255.251200,156.906400
363.264967,10355.822400,-1882.876800,706.078800
363.265272,9179.024400,-2510.502400,549.172400
363.265578,9728.196800,-2745.862000,549.172400
363.265883,9492.837200,-1882.876800,706.078800
363.266189,9100.571200,-2039.783200,156.906400
363.266495,9963.556400,-1804.423600,627.625600
363.266800,9649.743600,-1882.876800,862.985200
363.267106,9885.103200,-1490.610800,1176.798000
363.267411,9335.930800,-1098.344800,1255.251200
363.267717,9728.196800,-1725.970400,941.438400
363.268023,9414.384000,-1569.064000,862.985200
363.268328,9649.743600,-1961.330000,941.438400
363.268634,9806.650000,-1725.970400,941.438400
363.268939,9885.103200,-1490.610800,2353.596000
363.269245,9022.118000,-1019.891600,1098.344800
363.269551,10042.009600,-941.438400,1412.157600
363.269856,9649.743600,-784.532000,1412.157600
363.270162,9963.556400,-392.266000,1490.610800
363.270467,9885.103200,-470.719200,627.625600
363.270773,12160.246000,0.000000,2510.502400
363.271079,8708.305200,-392.266000,784.532000
363.271384,9963.556400,-627.625600,1098.344800
363.271690,9806.650000,-1098.344800,706.078800
363.271995,9649.743600,-549.172400,235.359600
363.272301,9571.290400,-313.812800,1176.798000
363.272607,9963.556400,-1333.704400,862.985200
363.272912,9492.837200,-470.719200,862.985200
363.273218,9335.930800,-392.266000,2118.236400
363.273523,10591.182000,-784.532000,1019.891600
363.273829,10355.822400,-392.266000,941.438400
363.274135,9728.196800,-470.719200,549.172400
363.274440,9885.103200,-627.625600,706.078800
363.274746,9649.743600,-313.812800,784.532000
363.275051,10277.369200,-470.719200,470.719200
363.275357,10277.369200,-470.719200,627.625600
363.275663,9806.650000,-627.625600,235.359600
363.275968,9728.196800,-235.359600,156.906400
363.276274,9100.571200,-862.985200,0.000000
363.276579,10042.009600,0.000000,784.532000
363.276885,9806.650000,-235.359600,-627.625600
363.277191,9022.118000,0.000000,-392.266000
363.277496,10042.009600,-313.812800,-392.266000
363.277802,10198.916000,-313.812800,-235.359600
363.278107,9492.837200,-627.625600,-392.266000
363.278413,9885.103200,313.812800,-156.906400
363.278719,10042.009600,-156.906400,0.000000
363.279024,9728.196800,0.000000,-706.078800
363.279330,10120.462800,0.000000,-627.625600
363.279635,9728.196800,0.000000,-1019.891600
363.279941,10120.462800,549.172400,-549.172400
363.280247,9963.556400,235.359600,-1019.891600
363.280552,10198.916000,706.078800,-1019.891600
363.280858,10434.275600,706.078800,-1019.891600
363.281163,10120.462800,392.266000,-1019.891600
363.281469,9963.556400,627.625600,-627.625600
363.281775,9963.556400,549.172400,-470.719200
363.282080,10826.541600,784.532000,0.000000
363.282386,10277.369200,784.532000,0.000000
363.282691,10120.462800,1019.891600,-470.719200
363.282997,10355.822400,1490.610800,-784.532000
363.283303,10277.369200,1725.970400,-392.266000
363.283608,9728.196800,1882.876800,-1176.798000
363.283914,10042.009600,1804.423600,-706.078800
363.284219,10042.009600,1569.064000,-706.078800
363.284525,9885.103200,1882.876800,-784.532000
363.284831,10434.275600,1490.610800,-784.532000
363.285136,10198.916000,1569.064000,-941.438400
363.285442,10042.009600,2118.236400,-1255.251200
363.285747,9806.650000,2196.689600,-1255.251200
363.286053,9571.290400,2824.315200,-1255.251200
363.286359,10355.822400,2196.689600,-1569.064000
363.286664,10120.462800,2432.049200,-1647.517200
363.286970,9963.556400,2039.783200,-1333.704400
363.287275,10042.009600,2275.142800,-1098.344800
363.287581,10277.369200,2432.049200,-784.532000
363.287887,10120.462800,1569.064000,-862.985200
363.288192,10355.822400,2196.689600,-706.078800
363.288498,10042.009600,2039.783200,-941.438400
363.288803,10591.182000,2353.596000,-941.438400
363.289109,10120.462800,2432.049200,-941.438400
363.289415,10042.009600,1725.970400,-941.438400
363.289720,10198.916000,3373.487600,-1019.891600
363.290026,10120.462800,2510.502400,-470.719200
363.290331,10512.728800,1882.876800,-941.438400
363.290637,10042.009600,1412.157600,-549.172400
363.290943,10277.369200,1412.157600,-1019.891600
363.291248,9414.384000,1961.330000,-784.532000
363.291554,9806.650000,784.532000,-1019.891600
363.291859,10120.462800,1098.344800,-706.078800
363.292165,10198.916000,1647.517200,-470.719200
363.292471,9963.556400,1333.704400,-706.078800
363.292776,10826.541600,1647.517200,-549.172400
363.293082,9963.556400,1725.970400,-706.078800
363.293387,10591.182000,1412.157600,-470.719200
363.293693,9963.556400,1647.517200,-470.719200
363.293999,10042.009600,1333.704400,-470.719200
363.294304,10748.088400,1333.704400,-392.266000
363.294610,10826.541600,1647.517200,-392.266000
363.294915,10042.009600,1019.891600,-392.266000
363.295221,10434.275600,1255.251200,-549.172400
363.295527,10355.822400,627.625600,-549.172400
363.295832,9885.103200,627.625600,-627.625600
363.296138,10042.009600,235.359600,-470.719200
363.296443,9728.196800,235.359600,-235.359600
363.296749,10512.728800,706.078800,-156.906400
363.297055,10042.009600,627.625600,-313.812800
363.297360,9492.837200,1255.251200,-392.266000
363.297666,9963.556400,470.719200,-392.266000
363.297971,10355.822400,706.078800,-313.812800
363.298277,9963.556400,784.532000,-313.812800
363.298583,10277.369200,313.812800,0.000000
363.298888,10277.369200,78.453200,627.625600
363.299194,10042.009600,-1098.344800,470.719200
363.299499,9571.290400,-784.532000,549.172400
363.299805,7609.960400,-313.812800,-156.906400
363.300111,11454.167200,-549.172400,549.172400
363.300416,10042.009600,0.000000,-156.906400
363.300722,9257.477600,0.000000,-156.906400
363.301027,9179.024400,0.000000,-470.719200
363.301333,10120.462800,-706.078800,0.000000
363.301639,9806.650000,-549.172400,0.000000
363.301944,9885.103200,-470.719200,0.000000
363.302250,9806.650000,-1569.064000,0.000000
363.302555,10042.009600,-784.532000,78.453200
363.302861,10042.009600,-706.078800,-156.906400
363.303167,10826.541600,-627.625600,784.532000
363.303472,10277.369200,-627.625600,78.453200
363.303778,11140.354400,-313.812800,313.812800
363.304083,10120.462800,0.000000,706.078800
363.304389,9728.196800,-1019.891600,156.906400
363.304695,10748.088400,-392.266000,627.625600
363.305000,10277.369200,-1176.798000,627.625600
363.305306,9571.290400,-784.532000,1176.798000
363.305611,10120.462800,-941.438400,941.438400
363.305917,10277.369200,-1725.970400,1019.891600
363.306223,9963.556400,-1255.251200,549.172400
363.306528,10512.728800,-706.078800,313.812800
363.306834,9649.743600,-627.625600,78.453200
363.307139,9649.743600,-313.812800,0.000000
363.307445,9414.384000,-941.438400,156.906400
363.307751,9885.103200,-1333.704400,0.000000
363.308056,9257.477600,-1725.970400,392.266000
363.308362,9963.556400,-1019.891600,1098.344800
363.308667,9414.384000,-392.266000,78.453200
363.308973,9414.384000,-1019.891600,470.719200
363.309278,11061.901200,-1019.891600,941.438400
363.309584,9649.743600,-313.812800,235.359600
363.309890,9806.650000,0.000000,549.172400
363.310195,9806.650000,-627.625600,706.078800
363.310501,10120.462800,-1255.251200,627.625600
363.310806,10042.009600,-941.438400,706.078800
363.311112,9885.103200,-1333.704400,627.625600
363.311418,10042.009600,-1176.798000,706.078800
363.311723,10042.009600,-706.078800,-156.906400
363.312029,9885.103200,-1255.251200,392.266000
363.312334,9728.196800,-941.438400,549.172400
363.312640,10042.009600,-1333.704400,784.532000
363.312946,9806.650000,-1255.251200,470.719200
363.313251,9649.743600,-784.532000,78.453200
363.313557,9885.103200,-1176.798000,78.453200
363.313862,9649.743600,-1176.798000,78.453200
363.314168,9571.290400,-1333.704400,392.266000
363.314474,9728.196800,-1647.517200,470.719200
363.314779,9963.556400,-941.438400,549.172400
363.315085,9571.290400,-1019.891600,392.266000
363.315390,9885.103200,-1019.891600,549.172400
363.315696,10355.822400,-1333.704400,470.719200
363.316002,10120.462800,-1098.344800,862.985200
363.316307,9414.384000,-1255.251200,1333.704400
363.316613,10277.369200,-1255.251200,784.532000
363.316918,10355.822400,-1098.344800,1098.344800
363.317224,9963.556400,-1333.704400,941.438400
363.317530,10042.009600,-313.812800,549.172400
363.317835,10198.916000,-392.266000,549.172400
363.318141,9885.103200,-549.172400,78.453200
363.318446,9806.650000,-549.172400,0.000000
363.318752,9806.650000,-862.985200,78.453200
363.319058,9728.196800,-941.438400,470.719200
363.319363,9806.650000,-784.532000,627.625600
363.319669,9335.930800,-862.985200,0.000000
363.319974,9963.556400,-313.812800,235.359600
363.320280,10120.462800,-313.812800,0.000000
363.320586,9492.837200,156.906400,0.000000
363.320891,10042.009600,235.359600,78.453200
363.321197,10591.182000,313.812800,-235.359600
363.321502,10042.009600,235.359600,313.812800
363.321808,10120.462800,-313.812800,392.266000
363.322114,10198.916000,235.359600,0.000000
363.322419,10042.009600,-235.359600,156.906400
363.322725,9649.743600,235.359600,0.000000
363.323030,9806.650000,235.359600,-156.906400
363.323336,10120.462800,0.000000,235.359600
363.323642,10042.009600,549.172400,78.453200
363.323947,9728.196800,156.906400,-156.906400
363.324253,10198.916000,313.812800,0.000000
363.324558,9649.743600,549.172400,-549.172400
363.324864,9963.556400,627.625600,-549.172400
363.325170,9728.196800,627.625600,-706.078800
363.325475,9963.556400,313.812800,0.000000
363.325781,9885.103200,392.266000,-941.438400
363.326086,10042.009600,706.078800,156.906400
363.326392,10512.728800,313.812800,-470.719200
363.326698,10591.182000,941.438400,0.000000
363.327003,9414.384000,1098.344800,-627.625600
363.327309,10355.822400,156.906400,-706.078800
363.327614,10042.009600,1176.798000,-1333.704400
363.327920,9179.024400,156.906400,-1176.798000
363.328226,9963.556400,235.359600,-706.078800
363.328531,11061.901200,156.906400,0.000000
363.328837,8865.211600,235.359600,-1255.251200
363.329142,9885.103200,470.719200,-862.985200
363.329448,9885.103200,235.359600,-784.532000
363.329754,9335.930800,235.359600,-549.172400
363.330059,9571.290400,470.719200,-627.625600
363.330365,10355.822400,235.359600,-313.812800
363.330670,9806.650000,862.985200,78.453200
363.330976,9885.103200,392.266000,-549.172400
363.331282,10042.009600,862.985200,-235.359600
363.331587,9963.556400,156.906400,-392.266000
363.331893,10042.009600,706.078800,-313.812800
363.332198,10042.009600,549.172400,78.453200
363.332504,10355.822400,313.812800,0.000000
363.332810,10277.369200,470.719200,-235.359600
363.333115,10355.822400,862.985200,-235.359600
363.333421,10591.182000,706.078800,-235.359600
363.333726,10669.635200,156.906400,-313.812800
363.334032,9414.384000,784.532000,-1019.891600
363.334338,10434.275600,784.532000,-941.438400
363.334643,10042.009600,313.812800,-627.625600
363.334949,10120.462800,235.359600,-392.266000
363.335254,10120.462800,156.906400,-313.812800
363.335560,10198.916000,0.000000,-313.812800
363.335866,10198.916000,313.812800,-313.812800
363.336171,9571.290400,784.532000,-941.438400
363.336477,9492.837200,862.985200,-706.078800
363.336782,10355.822400,1176.798000,-549.172400
363.337088,9885.103200,1176.798000,-470.719200
363.337394,10198.916000,549.172400,-235.359600
363.337699,9963.556400,706.078800,-235.359600
363.338005,10042.009600,706.078800,0.000000
363.338310,9571.290400,706.078800,-313.812800
363.338616,10904.994800,706.078800,627.625600
363.338922,10512.728800,78.453200,156.906400
363.339227,9492.837200,156.906400,156.906400
363.339533,10042.009600,862.985200,0.000000
363.339838,10434.275600,784.532000,-235.359600
363.340144,10198.916000,1098.344800,392.266000
363.340450,9963.556400,941.438400,0.000000
363.340755,10355.822400,941.438400,-156.906400
363.341061,9806.650000,862.985200,-235.359600
363.341366,9963.556400,470.719200,-235.359600
363.341672,10198.916000,549.172400,-470.719200
363.341978,10277.369200,0.000000,-313.812800
363.342283,10120.462800,-156.906400,-313.812800
363.342589,9885.103200,-392.266000,156.906400
363.342894,9728.196800,-156.906400,0.000000
363.343200,10120.462800,549.172400,156.906400
363.343506,10042.009600,156.906400,0.000000
363.343811,9649.743600,313.812800,549.172400
363.344117,10591.182000,-470.719200,-313.812800
363.344422,9885.103200,0.000000,0.000000
363.344728,9257.477600,78.453200,1098.344800
363.345034,10748.088400,-470.719200,156.906400
363.345339,10512.728800,313.812800,-156.906400
363.345645,9963.556400,-156.906400,0.000000
363.345950,10042.009600,-78.453200,156.906400
363.346256,9728.196800,0.000000,156.906400
363.346562,10355.822400,0.000000,156.906400
363.346867,10120.462800,0.000000,0.000000
363.347173,10277.369200,0.000000,156.906400
363.347478,9885.103200,78.453200,0.000000
363.347784,10042.009600,78.453200,0.000000
363.348090,10120.462800,-470.719200,0.000000
363.348395,9492.837200,-392.266000,235.359600
363.348701,10042.009600,-862.985200,470.719200
363.349006,9885.103200,-1490.610800,627.625600
363.349312,9414.384000,-392.266000,0.000000
363.349618,9571.290400,-392.266000,235.359600
363.349923,9963.556400,0.000000,0.000000
363.350229,10042.009600,0.000000,-235.359600
363.350534,9649.743600,0.000000,-235.359600
363.350840,9728.196800,0.000000,0.000000
363.351146,9806.650000,-235.359600,-156.906400
363.351451,9963.556400,-156.906400,156.906400
363.351757,9728.196800,-392.266000,156.906400
363.352062,10042.009600,-549.172400,0.000000
363.352368,10042.009600,-470.719200,78.453200
363.352674,9885.103200,-549.172400,156.906400
363.352979,10042.009600,-235.359600,392.266000
363.353285,10042.009600,-156.906400,470.719200
363.353590,10042.009600,-627.625600,549.172400
363.353896,9649.743600,-313.812800,392.266000
363.354202,10042.009600,-313.812800,941.438400
363.354507,10042.009600,-470.719200,627.625600
363.354813,9728.196800,0.000000,549.172400
363.355118,9806.650000,-235.359600,235.359600
363.355424,9806.650000,0.000000,235.359600
363.355730,9022.118000,-156.906400,78.453200
363.356035,9963.556400,0.000000,0.000000
363.356341,9885.103200,0.000000,78.453200
363.356646,10120.462800,-470.719200,78.453200
363.356952,10042.009600,-313.812800,392.266000
363.357258,9728.196800,-470.719200,627.625600
363.357563,10042.009600,-627.625600,313.812800
363.357869,10042.009600,-549.172400,392.266000
363.358174,9963.556400,-470.719200,313.812800
363.358480,9963.556400,-313.812800,0.000000
363.358786,10277.369200,-549.172400,-313.812800
363.359091,9885.103200,-784.532000,156.906400
363.359397,9963.556400,-941.438400,0.000000
363.359702,9728.196800,-706.078800,235.359600
363.360008,10042.009600,-784.532000,313.812800
363.360314,10120.462800,-941.438400,0.000000
363.360619,10042.009600,-862.985200,156.906400
363.360925,10042.009600,-627.625600,0.000000
363.361230,9963.556400,156.906400,-470.719200
363.361536,9806.650000,0.000000,-392.266000
363.361842,9728.196800,-470.719200,-549.172400
363.362147,10120.462800,0.000000,-156.906400
363.362453,10355.822400,-549.172400,-784.532000
363.362758,8943.664800,-392.266000,-706.078800
363.363064,9728.196800,-941.438400,-706.078800
363.363370,9963.556400,-392.266000,-941.438400
363.363675,11689.526800,-313.812800,1176.798000
363.363981,9963.556400,-784.532000,-313.812800
363.364286,9963.556400,156.906400,-235.359600
363.364592,10042.009600,78.453200,-235.359600
363.364898,9571.290400,-1333.704400,627.625600
363.365203,10198.916000,470.719200,0.000000
363.365509,11375.714000,78.453200,156.906400
363.365814,9492.837200,862.985200,0.000000
363.366120,9414.384000,-392.266000,0.000000
363.366426,10434.275600,-313.812800,235.359600
363.366731,11218.807600,549.172400,1333.704400
363.367037,8316.039200,784.532000,-1333.704400
363.367342,10512.728800,313.812800,-235.359600
363.367648,10512.728800,78.453200,313.812800
363.367954,9492.837200,235.359600,-156.906400
363.368259,9649.743600,78.453200,-313.812800
363.368565,10434.275600,156.906400,313.812800
363.368870,9571.290400,0.000000,78.453200
363.369176,10198.916000,-235.359600,549.172400
363.369482,9649.743600,549.172400,-470.719200
363.369787,9885.103200,0.000000,-627.625600
363.370093,10904.994800,-862.985200,0.000000
363.370398,9728.196800,0.000000,78.453200
363.370704,9885.103200,0.000000,0.000000
363.371009,10198.916000,0.000000,0.000000
363.371315,9806.650000,392.266000,549.172400
363.371621,9963.556400,78.453200,549.172400
363.371926,10198.916000,627.625600,78.453200
363.372232,10355.822400,235.359600,549.172400
363.372537,9728.196800,78.453200,0.000000
363.372843,10042.009600,549.172400,156.906400
363.373149,9885.103200,313.812800,156.906400
363.373454,10042.009600,549.172400,156.906400
363.373760,9963.556400,392.266000,78.453200
363.374065,9728.196800,235.359600,0.000000
363.374371,10120.462800,78.453200,0.000000
363.374677,10042.009600,-78.453200,156.906400
363.374982,9571.290400,156.906400,156.906400
363.375288,10042.009600,78.453200,0.000000
363.375593,9885.103200,470.719200,0.000000
363.375899,10042.009600,941.438400,-235.359600
363.376205,10042.009600,862.985200,0.000000
363.376510,9728.196800,1412.157600,-706.078800
363.376816,10120.462800,549.172400,-392.266000
363.377121,10512.728800,862.985200,0.000000
363.377427,10042.009600,392.266000,78.453200
363.377733,10198.916000,627.625600,156.906400
363.378038,10591.182000,1098.344800,78.453200
363.378344,10042.009600,862.985200,156.906400
363.378649,10198.916000,1019.891600,0.000000
363.378955,10355.822400,862.985200,-156.906400
363.379261,10277.369200,784.532000,-392.266000
363.379566,10512.728800,706.078800,0.000000
363.379872,9806.650000,235.359600,0.000000
363.380177,10277.369200,1647.517200,-78.453200
363.380483,9806.650000,1019.891600,313.812800
363.380789,10042.009600,862.985200,78.453200
363.381094,10042.009600,1255.251200,-156.906400
363.381400,10120.462800,862.985200,0.000000
363.381705,9728.196800,941.438400,-235.359600
363.382011,10042.009600,156.906400,-235.359600
363.382317,10042.009600,1098.344800,0.000000
363.382622,9963.556400,862.985200,78.453200
363.382928,10042.009600,862.985200,-235.359600
363.383233,9728.196800,1019.891600,-627.625600
363.383539,9963.556400,706.078800,-470.719200
363.383845,9885.103200,1098.344800,-470.719200
363.384150,10120.462800,784.532000,-627.625600
363.384456,10512.728800,0.000000,-156.906400
363.384761,10042.009600,706.078800,-156.906400
363.385067,10042.009600,627.625600,-235.359600
363.385373,10042.009600,862.985200,-470.719200
363.385678,9179.024400,706.078800,-470.719200
363.385984,10277.369200,1412.157600,-549.172400
363.386289,10120.462800,627.625600,-706.078800
363.386595,10120.462800,862.985200,-706.078800
363.386901,9963.556400,706.078800,-392.266000
363.387206,10355.822400,1019.891600,-392.266000
363.387512,10277.369200,706.078800,-470.719200
363.387817,10042.009600,862.985200,-235.359600
363.388123,10042.009600,1098.344800,0.000000
363.388429,10042.009600,706.078800,-235.359600
363.388734,10198.916000,706.078800,-392.266000
363.389040,9963.556400,1098.344800,-313.812800
363.389345,9963.556400,941.438400,0.000000
363.389651,10198.916000,156.906400,-392.266000
363.389957,10042.009600,706.078800,-549.172400
363.390262,9806.650000,862.985200,-627.625600
363.390568,10042.009600,392.266000,-706.078800
363.390873,9885.103200,392.266000,-392.266000
363.391179,9885.103200,0.000000,-627.625600
363.391485,9571.290400,313.812800,-549.172400
363.391790,9963.556400,235.359600,-470.719200
363.392096,9963.556400,313.812800,-470.719200
363.392401,9649.743600,627.625600,-627.625600
363.392707,9806.650000,-549.172400,-706.078800
363.393013,10198.916000,0.000000,-706.078800
363.393318,9414.384000,-392.266000,-706.078800
363.393624,9885.103200,0.000000,-392.266000
363.393929,9728.196800,313.812800,0.000000
363.394235,10042.009600,-392.266000,-235.359600
363.394541,9963.556400,0.000000,0.000000
363.394846,10355.822400,-235.359600,0.000000
363.395152,10277.369200,-313.812800,0.000000
363.395457,10591.182000,-235.359600,549.172400
363.395763,10198.916000,-627.625600,549.172400
363.396069,10042.009600,-706.078800,549.172400
363.396374,10042.009600,-549.172400,627.625600
363.396680,10042.009600,-1412.157600,706.078800
363.396985,10434.275600,313.812800,862.985200
363.397291,11140.354400,470.719200,392.266000
363.397597,9571.290400,-470.719200,-313.812800
363.397902,10198.916000,-706.078800,0.000000
363.398208,10198.916000,-549.172400,0.000000
363.398513,8865.211600,-862.985200,0.000000
363.398819,9963.556400,-1882.876800,78.453200
363.399125,10042.009600,-78.453200,0.000000
363.399430,8865.211600,-1176.798000,1176.798000
363.399736,10355.822400,-862.985200,392.266000
363.400041,9963.556400,-392.266000,78.453200
363.400347,9806.650000,-1098.344800,78.453200
363.400653,10042.009600,-235.359600,706.078800
363.400958,9963.556400,-706.078800,549.172400
363.401264,9885.103200,-1019.891600,549.172400
363.401569,10120.462800,-470.719200,549.172400
363.401875,10434.275600,-1098.344800,1098.344800
363.402181,10591.182000,-470.719200,1019.891600
363.402486,10355.822400,-627.625600,627.625600
363.402792,9963.556400,-470.719200,862.985200
363.403097,10277.369200,-235.359600,549.172400
363.403403,10042.009600,-706.078800,627.625600
363.403709,9649.743600,-313.812800,235.359600
363.404014,9963.556400,-706.078800,392.266000
363.404320,9414.384000,-862.985200,313.812800
363.404625,9649.743600,-1255.251200,235.359600
363.404931,10120.462800,-784.532000,235.359600
363.405237,10042.009600,-392.266000,78.453200
363.405542,9571.290400,0.000000,-313.812800
363.405848,9335.930800,-470.719200,-235.359600
363.406153,9335.930800,0.000000,78.453200
363.406459,10042.009600,-392.266000,-235.359600
363.406765,9806.650000,-706.078800,156.906400
363.407070,9806.650000,-627.625600,470.719200
363.407376,10042.009600,-706.078800,549.172400
363.407681,10042.009600,-392.266000,313.812800
363.407987,10120.462800,-235.359600,156.906400
363.408293,9806.650000,-470.719200,235.359600
363.408598,10434.275600,-706.078800,-156.906400
363.408904,10120.462800,-627.625600,-156.906400
363.409209,9728.196800,-706.078800,-235.359600
363.409515,9806.650000,-627.625600,0.000000
363.409821,10591.182000,-549.172400,313.812800
363.410126,10042.009600,-941.438400,156.906400
363.410432,9414.384000,-549.172400,0.000000
363.410737,10277.369200,-392.266000,156.906400
363.411043,10434.275600,-784.532000,156.906400
363.411349,9885.103200,-470.719200,-235.359600
363.411654,9963.556400,-706.078800,-313.812800
363.411960,10120.462800,-784.532000,-156.906400
363.412265,9492.837200,-1255.251200,-313.812800
363.412571,10042.009600,-1176.798000,627.625600
363.412877,10120.462800,-392.266000,156.906400
363.413182,9649.743600,-549.172400,78.453200
363.413488,9963.556400,-1255.251200,0.000000
363.413793,10042.009600,-1176.798000,156.906400
363.414099,9492.837200,-862.985200,392.266000
363.414405,9492.837200,-549.172400,235.359600
363.414710,10042.009600,-784.532000,156.906400
363.415016,9963.556400,-784.532000,313.812800
363.415321,10277.369200,-627.625600,0.000000
363.415627,9963.556400,-313.812800,-156.906400
363.415933,10120.462800,235.359600,-627.625600
363.416238,10042.009600,-392.266000,0.000000
363.416544,10042.009600,313.812800,0.000000
363.416849,10198.916000,0.000000,-78.453200
363.417155,10512.728800,0.000000,0.000000
363.417461,9571.290400,78.453200,-156.906400
363.417766,10042.009600,-392.266000,235.359600
363.418072,10042.009600,706.078800,-862.985200
363.418377,10042.009600,-470.719200,0.000000
363.418683,9571.290400,470.719200,-549.172400
363.418989,10277.369200,784.532000,-470.719200
363.419294,9571.290400,0.000000,-470.719200
363.419600,9492.837200,470.719200,-784.532000
363.419905,9414.384000,156.906400,-1019.891600
363.420211,9728.196800,235.359600,-706.078800
363.420517,10042.009600,0.000000,0.000000
363.420822,9492.837200,392.266000,0.000000
363.421128,10434.275600,627.625600,0.000000
363.421433,10277.369200,784.532000,0.000000
363.421739,9728.196800,784.532000,-156.906400
363.422045,9335.930800,0.000000,0.000000
363.422350,7845.320000,156.906400,-470.719200
363.422656,11297.260800,470.719200,-470.719200
363.422961,9885.103200,470.719200,0.000000
363.423267,9414.384000,392.266000,78.453200
363.423573,11454.167200,706.078800,156.906400
363.423878,9885.103200,0.000000,0.000000
363.424184,9806.650000,549.172400,0.000000
363.424489,10355.822400,470.719200,0.000000
363.424795,10198.916000,941.438400,-235.359600
363.425101,9571.290400,627.625600,-627.625600
363.425406,9728.196800,470.719200,-392.266000
363.425712,10198.916000,392.266000,-313.812800
363.426017,10042.009600,392.266000,-235.359600
363.426323,9649.743600,392.266000,-235.359600
363.426629,9885.103200,549.172400,-156.906400
363.426934,9806.650000,1098.344800,-313.812800
363.427240,9649.743600,235.359600,-235.359600
363.427545,10198.916000,235.359600,0.000000
363.427851,10042.009600,706.078800,156.906400
363.428157,9806.650000,313.812800,313.812800
363.428462,10042.009600,0.000000,862.985200
363.428768,10120.462800,0.000000,627.625600
363.429073,9963.556400,235.359600,470.719200
363.429379,9885.103200,313.812800,235.359600
363.429685,10042.009600,0.000000,313.812800
363.429990,9963.556400,156.906400,235.359600
363.430296,10355.822400,0.000000,235.359600
363.430601,9963.556400,313.812800,0.000000
363.430907,9963.556400,470.719200,0.000000
363.431213,9728.196800,313.812800,0.000000
363.431518,9963.556400,235.359600,0.000000
363.431824,9963.556400,235.359600,-549.172400
363.432129,9885.103200,470.719200,-235.359600
363.432435,10042.009600,627.625600,-235.359600
363.432740,10198.916000,862.985200,0.000000
363.433046,9963.556400,1882.876800,0.000000
363.433352,10277.369200,706.078800,-470.719200
363.433657,10591.182000,549.172400,313.812800
363.433963,10042.009600,862.985200,-156.906400
363.434268,10983.448000,392.266000,1176.798000
363.434574,11218.807600,-235.359600,1176.798000
363.434880,9649.743600,2432.049200,-235.359600
363.435185,10277.369200,1569.064000,0.000000
363.435491,10355.822400,1019.891600,313.812800
363.435796,10277.369200,784.532000,-392.266000
363.436102,9806.650000,1098.344800,0.000000
363.436408,10355.822400,1412.157600,0.000000
363.436713,9728.196800,862.985200,313.812800
363.437019,9963.556400,627.625600,470.719200
363.437324,10512.728800,156.906400,706.078800
363.437630,9571.290400,1019.891600,156.906400
363.437936,9728.196800,549.172400,313.812800
363.438241,10277.369200,1176.798000,78.453200
363.438547,9649.743600,1255.251200,-470.719200
363.438852,9963.556400,862.985200,-549.172400
363.439158,9728.196800,1176.798000,-235.359600
363.439464,9728.196800,784.532000,313.812800
363.439769,10355.822400,392.266000,0.000000
363.440075,9728.196800,392.266000,235.359600
363.440380,9885.103200,706.078800,0.000000
363.440686,10042.009600,549.172400,0.000000
363.440992,9728.196800,235.359600,-156.906400
363.441297,9728.196800,862.985200,-313.812800
363.441603,10198.916000,313.812800,0.000000
363.441908,10042.009600,392.266000,0.000000
363.442214,9963.556400,156.906400,-156.906400
363.442520,9885.103200,313.812800,0.000000
363.442825,10120.462800,0.000000,0.000000
363.443131,10042.009600,0.000000,-313.812800
363.443436,9806.650000,0.000000,-235.359600
363.443742,9963.556400,0.000000,-156.906400
363.444048,9963.556400,313.812800,78.453200
363.444353,10042.009600,392.266000,-156.906400
363.444659,9806.650000,-235.359600,-392.266000
363.444964,10042.009600,-235.359600,0.000000
363.445270,9806.650000,0.000000,-313.812800
363.445576,9728.196800,-470.719200,-470.719200
363.445881,9806.650000,-156.906400,0.000000
363.446187,10120.462800,0.000000,-235.359600
363.446492,9728.196800,-392.266000,-313.812800
363.446798,10042.009600,0.000000,-156.906400
363.447104,9806.650000,-549.172400,-392.266000
363.447409,9492.837200,0.000000,-235.359600
363.447715,9963.556400,-235.359600,-313.812800
363.448020,10120.462800,-313.812800,-235.359600
363.448326,9963.556400,0.000000,0.000000
363.448632,10355.822400,-862.985200,156.906400
363.448937,9963.556400,-549.172400,235.359600
363.449243,10120.462800,-784.532000,156.906400
363.449548,10277.369200,-235.359600,156.906400
363.449854,9806.650000,0.000000,-156.906400
363.450160,9885.103200,-470.719200,0.000000
363.450465,9728.196800,0.000000,0.000000
363.450771,9885.103200,-392.266000,-392.266000
363.451076,9885.103200,-235.359600,0.000000
363.451382,9728.196800,-313.812800,-235.359600
363.451688,9963.556400,-392.266000,-470.719200
363.451993,9728.196800,-706.078800,-235.359600
363.452299,9414.384000,-1176.798000,-156.906400
363.452604,8865.211600,-1255.251200,-784.532000
363.452910,9963.556400,-470.719200,-1019.891600
363.453216,8943.664800,-862.985200,-78.453200
363.453521,10277.369200,0.000000,313.812800
363.453827,9414.384000,-470.719200,235.359600
363.454132,10277.369200,0.000000,1019.891600
363.454438,9492.837200,-392.266000,549.172400
363.454744,10042.009600,0.000000,156.906400
363.455049,10591.182000,156.906400,0.000000
363.455355,9649.743600,-549.172400,235.359600
363.455660,9963.556400,-862.985200,392.266000
363.455966,10120.462800,-862.985200,627.625600
363.456272,9885.103200,-1333.704400,313.812800
363.456577,9963.556400,313.812800,784.532000
363.456883,9885.103200,-627.625600,235.359600
363.457188,9885.103200,0.000000,78.453200
363.457494,10277.369200,0.000000,0.000000
363.457800,9649.743600,-235.359600,-235.359600
363.458105,9571.290400,78.453200,-156.906400
363.458411,9885.103200,-470.719200,-1098.344800
363.458716,9885.103200,-470.719200,78.453200
363.459022,9571.290400,-470.719200,78.453200
363.459328,9728.196800,-627.625600,0.000000
363.459633,9571.290400,-1019.891600,627.625600
363.459939,10042.009600,156.906400,941.438400
363.460244,9885.103200,156.906400,0.000000
363.460550,9414.384000,-156.906400,78.453200
363.460856,10277.369200,-235.359600,235.359600
363.461161,9728.196800,0.000000,78.453200
363.461467,9649.743600,-313.812800,235.359600
363.461772,9728.196800,-627.625600,0.000000
363.462078,9963.556400,-784.532000,0.000000
363.462384,10042.009600,-1019.891600,313.812800
363.462689,10198.916000,-470.719200,392.266000
363.462995,10042.009600,-156.906400,549.172400
363.463300,10120.462800,-235.359600,392.266000
363.463606,9649.743600,-313.812800,235.359600
363.463912,10355.822400,-706.078800,392.266000
363.464217,10512.728800,-392.266000,313.812800
363.464523,9963.556400,235.359600,862.985200
363.464828,10277.369200,-313.812800,313.812800
363.465134,9885.103200,-784.532000,549.172400
363.465440,9885.103200,-1804.423600,941.438400
363.465745,9257.477600,-470.719200,0.000000
363.466051,10512.728800,-1098.344800,235.359600
363.466356,9414.384000,-392.266000,235.359600
363.466662,9806.650000,0.000000,0.000000
363.466968,9885.103200,78.453200,0.000000
363.467273,9885.103200,0.000000,0.000000
363.467579,9728.196800,235.359600,-784.532000
363.467884,9649.743600,0.000000,-313.812800
363.468190,9728.196800,0.000000,-392.266000
363.468496,9649.743600,0.000000,-392.266000
363.468801,10042.009600,-235.359600,0.000000
363.469107,9414.384000,-470.719200,0.000000
363.469412,9492.837200,0.000000,235.359600
363.469718,10042.009600,78.453200,156.906400
363.470024,9885.103200,313.812800,78.453200
363.470329,9963.556400,392.266000,0.000000
363.470635,10042.009600,627.625600,156.906400
363.470940,10826.541600,156.906400,0.000000
363.471246,10042.009600,706.078800,0.000000
363.471552,10042.009600,0.000000,-78.453200
363.471857,10277.369200,549.172400,0.000000
363.472163,9885.103200,235.359600,0.000000
363.472468,10355.822400,470.719200,0.000000
363.472774,10042.009600,235.359600,-392.266000
363.473080,9806.650000,549.172400,-627.625600
363.473385,10355.822400,706.078800,-706.078800
363.473691,9885.103200,313.812800,-784.532000
363.473996,9806.650000,706.078800,-784.532000
363.474302,10277.369200,549.172400,-627.625600
363.474608,10042.009600,392.266000,-784.532000
363.474913,10042.009600,313.812800,-470.719200
363.475219,9963.556400,470.719200,-627.625600
363.475524,10198.916000,549.172400,-549.172400
363.475830,10198.916000,235.359600,-549.172400
363.476136,9963.556400,392.266000,-706.078800
363.476441,9963.556400,156.906400,-156.906400
363.476747,9649.743600,392.266000,-235.359600
363.477052,10355.822400,313.812800,0.000000
363.477358,10042.009600,392.266000,78.453200
363.477664,9806.650000,78.453200,0.000000
363.477969,9806.650000,156.906400,-392.266000
363.478275,9885.103200,156.906400,-862.985200
363.478580,10120.462800,313.812800,0.000000
363.478886,9885.103200,470.719200,-313.812800
363.479192,10198.916000,235.359600,-392.266000
363.479497,10042.009600,-156.906400,-706.078800
363.479803,9571.290400,0.000000,-627.625600
363.480108,9649.743600,0.000000,-549.172400
363.480414,9963.556400,-470.719200,-784.532000
363.480720,9963.556400,0.000000,-235.359600
363.481025,9963.556400,-470.719200,0.000000
363.481331,10669.635200,0.000000,156.906400
363.481636,10042.009600,313.812800,-313.812800
363.481942,10355.822400,627.625600,-784.532000
363.482248,10042.009600,862.985200,-392.266000
363.482553,10512.728800,235.359600,0.000000
363.482859,10198.916000,392.266000,0.000000
363.483164,9885.103200,0.000000,0.000000
363.483470,9806.650000,156.906400,0.000000
363.483776,10120.462800,0.000000,0.000000
363.484081,9963.556400,-313.812800,0.000000
363.484387,8865.211600,-862.985200,313.812800
363.484692,8629.852000,0.000000,78.453200
363.484998,11767.980000,-470.719200,313.812800
363.485304,9335.930800,862.985200,235.359600
363.485609,9100.571200,0.000000,0.000000
363.485915,10669.635200,313.812800,0.000000
363.486220,10120.462800,-313.812800,0.000000
363.486526,9179.024400,313.812800,235.359600
363.486832,10355.822400,-549.172400,784.532000
363.487137,10512.728800,78.453200,313.812800
363.487443,10198.916000,156.906400,0.000000
363.487748,9728.196800,-313.812800,0.000000
363.488054,9963.556400,78.453200,0.000000
363.488360,10355.822400,0.000000,706.078800
363.488665,10042.009600,78.453200,0.000000
363.488971,9414.384000,0.000000,1804.423600
363.489276,10591.182000,-627.625600,862.985200
363.489582,10042.009600,-78.453200,156.906400
363.489888,10434.275600,78.453200,1412.157600
363.490193,10042.009600,0.000000,156.906400
363.490499,10120.462800,156.906400,392.266000
363.490804,10042.009600,-235.359600,392.266000
363.491110,9963.556400,0.000000,313.812800
363.491416,9728.196800,0.000000,549.172400
363.491721,9728.196800,-392.266000,549.172400
363.492027,9885.103200,0.000000,549.172400
363.492332,9963.556400,-549.172400,392.266000
363.492638,9963.556400,-235.359600,549.172400
363.492944,10042.009600,0.000000,627.625600
363.493249,10042.009600,0.000000,392.266000
363.493555,9963.556400,470.719200,313.812800
363.493860,10042.009600,78.453200,392.266000
363.494166,10120.462800,392.266000,235.359600
363.494471,9806.650000,0.000000,235.359600
363.494777,9885.103200,0.000000,0.000000
363.495083,10120.462800,-706.078800,470.719200
363.495388,10277.369200,-627.625600,235.359600
363.495694,9649.743600,0.000000,235.359600
363.495999,10198.916000,156.906400,627.625600
363.496305,9257.477600,313.812800,627.625600
363.496611,10198.916000,0.000000,235.359600
363.496916,9963.556400,78.453200,-235.359600
363.497222,9885.103200,0.000000,-392.266000
363.497527,9885.103200,-235.359600,0.000000
363.497833,9885.103200,0.000000,235.359600
363.498139,9963.556400,-235.359600,0.000000
363.498444,10042.009600,-392.266000,-313.812800
363.498750,9806.650000,0.000000,0.000000
363.499055,9728.196800,0.000000,-313.812800
363.499361,9728.196800,313.812800,470.719200
363.499667,10198.916000,0.000000,-156.906400
363.499972,10042.009600,-235.359600,0.000000
363.500278,10042.009600,-392.266000,0.000000
363.500583,10042.009600,0.000000,0.000000
363.500889,10198.916000,0.000000,0.000000
363.501195,10042.009600,-470.719200,-235.359600
363.501500,10277.369200,-235.359600,-156.906400
363.501806,10042.009600,0.000000,0.000000
363.502111,9885.103200,-156.906400,0.000000
363.502417,10120.462800,0.000000,-156.906400
363.502723,10355.822400,0.000000,0.000000
363.503028,10042.009600,-235.359600,0.000000
363.503334,9728.196800,0.000000,0.000000
363.503639,9885.103200,0.000000,-313.812800
363.503945,9885.103200,0.000000,-156.906400
363.504251,9963.556400,0.000000,-313.812800
363.504556,10198.916000,-313.812800,0.000000
363.504862,9414.384000,0.000000,-392.266000
363.505167,9649.743600,-392.266000,-627.625600
363.505473,9885.103200,0.000000,-627.625600
363.505779,10042.009600,-313.812800,-235.359600
363.506084,9963.556400,-313.812800,0.000000
363.506390,10277.369200,-235.359600,-235.359600
363.506695,9649.743600,-156.906400,0.000000
363.507001,9414.384000,235.359600,-392.266000
363.507307,10042.009600,0.000000,-392.266000
363.507612,9963.556400,-392.266000,-862.985200
363.507918,10042.009600,-313.812800,-313.812800
363.508223,9728.196800,-784.532000,0.000000
363.508529,9885.103200,-627.625600,-235.359600
363.508835,10198.916000,0.000000,313.812800
363.509140,10120.462800,0.000000,0.000000
363.509446,10042.009600,470.719200,-470.719200
363.509751,9963.556400,235.359600,-470.719200
363.510057,10042.009600,0.000000,-235.359600
363.510363,9728.196800,-156.906400,-1019.891600
363.510668,9885.103200,0.000000,-235.359600
363.510974,9728.196800,-313.812800,-313.812800
363.511279,10198.916000,0.000000,0.000000
363.511585,9963.556400,78.453200,0.000000
363.511891,11061.901200,-313.812800,-470.719200
363.512196,9806.650000,784.532000,-156.906400
363.512502,9728.196800,1098.344800,-313.812800
363.512807,10277.369200,0.000000,0.000000
363.513113,10042.009600,78.453200,0.000000
363.513419,10277.369200,-313.812800,862.985200
363.513724,10042.009600,0.000000,627.625600
363.514030,10355.822400,0.000000,156.906400
363.514335,10042.009600,0.000000,0.000000
363.514641,10355.822400,-627.625600,862.985200
363.514947,9179.024400,941.438400,0.000000
363.515252,10042.009600,706.078800,-941.438400
363.515558,9649.743600,78.453200,0.000000
363.515863,9806.650000,78.453200,-313.812800
363.516169,10042.009600,156.906400,0.000000
363.516475,10120.462800,78.453200,0.000000
363.516780,10120.462800,78.453200,0.000000
363.517086,9492.837200,-862.985200,0.000000
363.517391,10198.916000,706.078800,470.719200
363.517697,9728.196800,392.266000,-784.532000
363.518003,10355.822400,78.453200,-235.359600
363.518308,10512.728800,470.719200,156.906400
363.518614,10434.275600,392.266000,235.359600
363.518919,10042.009600,0.000000,235.359600
363.519225,10355.822400,706.078800,78.453200
363.519531,9649.743600,0.000000,392.266000
363.519836,10277.369200,0.000000,313.812800
363.520142,10277.369200,-156.906400,0.000000
363.520447,9649.743600,0.000000,0.000000
363.520753,9885.103200,784.532000,-235.359600
363.521059,9806.650000,156.906400,-156.906400
363.521364,10042.009600,784.532000,-392.266000
363.521670,9963.556400,392.266000,0.000000
363.521975,10042.009600,156.906400,156.906400
363.522281,9885.103200,0.000000,156.906400
363.522587,10120.462800,156.906400,1019.891600
363.522892,9649.743600,627.625600,235.359600
363.523198,10198.916000,0.000000,78.453200
363.523503,10198.916000,470.719200,156.906400
363.523809,9649.743600,235.359600,0.000000
363.524115,9492.837200,313.812800,0.000000
363.524420,10120.462800,627.625600,78.453200
363.524726,9963.556400,-470.719200,549.172400
363.525031,10904.994800,-392.266000,78.453200
363.525337,10277.369200,1255.251200,-78.453200
363.525643,9963.556400,0.000000,0.000000
363.525948,10042.009600,706.078800,156.906400
363.526254,10355.822400,-156.906400,-235.359600
363.526559,9806.650000,78.453200,-313.812800
363.526865,9728.196800,313.812800,-392.266000
363.527171,9885.103200,-392.266000,-313.812800
363.527476,9885.103200,549.172400,-313.812800
363.527782,9649.743600,0.000000,235.359600
363.528087,9885.103200,0.000000,0.000000
363.528393,9649.743600,470.719200,0.000000
363.528699,10277.369200,-235.359600,0.000000
363.529004,10042.009600,392.266000,0.000000
363.529310,9806.650000,0.000000,313.812800
363.529615,10198.916000,156.906400,0.000000
363.529921,10355.822400,392.266000,0.000000
363.530227,10198.916000,0.000000,-235.359600
363.530532,9414.384000,0.000000,0.000000
363.530838,10355.822400,0.000000,0.000000
363.531143,10198.916000,0.000000,-156.906400
363.531449,9806.650000,78.453200,-235.359600
363.531755,10042.009600,78.453200,-313.812800
363.532060,10042.009600,627.625600,-549.172400
363.532366,9571.290400,313.812800,-862.985200
363.532671,10120.462800,235.359600,-941.438400
363.532977,9492.837200,156.906400,-941.438400
363.533283,9728.196800,392.266000,-549.172400
363.533588,9806.650000,0.000000,-862.985200
363.533894,9728.196800,0.000000,-862.985200
363.534199,9963.556400,78.453200,-392.266000
363.534505,9728.196800,0.000000,-235.359600
363.534811,9963.556400,0.000000,-392.266000
363.535116,9728.196800,0.000000,-235.359600
363.535422,9885.103200,235.359600,0.000000
363.535727,10042.009600,-313.812800,-470.719200
363.536033,9963.556400,78.453200,-235.359600
363.536339,9963.556400,235.359600,0.000000
363.536644,10355.822400,78.453200,0.000000
363.536950,9806.650000,-156.906400,0.000000
363.537255,9257.477600,706.078800,78.453200
363.537561,10355.822400,0.000000,0.000000
363.537867,10198.916000,-235.359600,156.906400
363.538172,9571.290400,-627.625600,156.906400
363.538478,10120.462800,-392.266000,0.000000
363.538783,10042.009600,470.719200,-784.532000
363.539089,9571.290400,235.359600,0.000000
363.539395,9414.384000,0.000000,-313.812800
363.539700,10591.182000,470.719200,78.453200
363.540006,9963.556400,470.719200,-549.172400
363.540311,9492.837200,549.172400,-470.719200
363.540617,9649.743600,0.000000,-627.625600
363.540923,10277.369200,0.000000,-549.172400
363.541228,9649.743600,313.812800,-313.812800
363.541534,9963.556400,78.453200,-470.719200
363.541839,9885.103200,470.719200,-392.266000
363.542145,9885.103200,0.000000,-156.906400
363.542451,9963.556400,-470.719200,0.000000
363.542756,9806.650000,0.000000,156.906400
363.543062,9806.650000,0.000000,78.453200
363.543367,10198.916000,0.000000,0.000000
363.543673,9492.837200,-627.625600,862.985200
363.543979,10904.994800,-784.532000,235.359600
363.544284,9963.556400,0.000000,313.812800
363.544590,10120.462800,-549.172400,313.812800
363.544895,10120.462800,-235.359600,470.719200
363.545201,10120.462800,-941.438400,1255.251200
363.545507,10042.009600,-549.172400,706.078800
363.545812,10669.635200,-156.906400,941.438400
363.546118,9649.743600,0.000000,470.719200
363.546423,9885.103200,156.906400,235.359600
363.546729,10826.541600,627.625600,470.719200
363.547035,9963.556400,0.000000,0.000000
363.547340,9963.556400,-1098.344800,156.906400
363.547646,10042.009600,-392.266000,392.266000
363.547951,10120.462800,-862.985200,470.719200
363.548257,9806.650000,-627.625600,156.906400
363.548563,9728.196800,-862.985200,392.266000
363.548868,10042.009600,-392.266000,235.359600
363.549174,10042.009600,0.000000,78.453200
363.549479,9885.103200,0.000000,0.000000
363.549785,9963.556400,-235.359600,0.000000
363.550091,11061.901200,-549.172400,706.078800
363.550396,10120.462800,-313.812800,549.172400
363.550702,10355.822400,-313.812800,549.172400
363.551007,10434.275600,0.000000,392.266000
363.551313,10120.462800,-156.906400,235.359600
363.551619,10120.462800,0.000000,0.000000
363.551924,10198.916000,-235.359600,392.266000
363.552230,9885.103200,78.453200,470.719200
363.552535,10042.009600,0.000000,470.719200
363.552841,10042.009600,-470.719200,313.812800
363.553147,9728.196800,-156.906400,0.000000
363.553452,9728.196800,0.000000,156.906400
363.553758,9806.650000,-235.359600,313.812800
363.554063,9649.743600,-156.906400,78.453200
363.554369,9963.556400,0.000000,235.359600
363.554675,9728.196800,784.532000,549.172400
363.554980,9885.103200,0.000000,392.266000
363.555286,9022.118000,-313.812800,235.359600
363.555591,10277.369200,78.453200,549.172400
363.555897,9806.650000,0.000000,0.000000
363.556202,10355.822400,78.453200,78.453200
363.556508,9963.556400,313.812800,78.453200
363.556814,10120.462800,235.359600,-235.359600
363.557119,10512.728800,156.906400,235.359600
363.557425,10355.822400,235.359600,156.906400
363.557730,9963.556400,313.812800,627.625600
363.558036,10277.369200,470.719200,0.000000
363.558342,10042.009600,392.266000,0.000000
363.558647,9728.196800,0.000000,0.000000
363.558953,10198.916000,0.000000,-156.906400
363.559258,9885.103200,0.000000,0.000000
363.559564,10277.369200,0.000000,-313.812800
363.559870,9885.103200,-235.359600,-549.172400
363.560175,9649.743600,0.000000,-470.719200
363.560481,9963.556400,235.359600,0.000000
363.560786,10042.009600,235.359600,-706.078800
363.561092,9728.196800,313.812800,-549.172400
363.561398,10277.369200,470.719200,-1255.251200
363.561703,10042.009600,-78.453200,-235.359600
363.562009,9963.556400,0.000000,78.453200
363.562314,10198.916000,0.000000,0.000000
363.562620,10434.275600,470.719200,392.266000
363.562926,10042.009600,0.000000,78.453200
363.563231,9728.196800,0.000000,0.000000
363.563537,10198.916000,0.000000,0.000000
363.563842,10434.275600,0.000000,0.000000
363.564148,10512.728800,78.453200,235.359600
363.564454,10042.009600,235.359600,-156.906400
363.564759,10042.009600,0.000000,-470.719200
363.565065,9963.556400,0.000000,-706.078800
363.565370,10042.009600,-470.719200,-392.266000
363.565676,9963.556400,156.906400,627.625600
363.565982,10042.009600,156.906400,0.000000
363.566287,9963.556400,-313.812800,78.453200
363.566593,9963.556400,-156.906400,235.359600
363.566898,10042.009600,-156.906400,78.453200
363.567204,10120.462800,0.000000,0.000000
363.567510,10042.009600,78.453200,0.000000
363.567815,9885.103200,392.266000,0.000000
363.568121,9885.103200,627.625600,-392.266000
363.568426,9963.556400,-392.266000,0.000000
363.568732,9649.743600,-706.078800,0.000000
363.569038,9806.650000,-313.812800,-784.532000
363.569343,9885.103200,-627.625600,156.906400
363.569649,9963.556400,-470.719200,235.359600
363.569954,9728.196800,0.000000,156.906400
363.570260,9728.196800,78.453200,78.453200
363.570566,10512.728800,0.000000,1019.891600
363.570871,11532.620400,0.000000,1490.610800
363.571177,9335.930800,392.266000,-392.266000
363.571482,10042.009600,156.906400,0.000000
363.571788,10591.182000,313.812800,0.000000
363.572094,9649.743600,-549.172400,0.000000
363.572399,9571.290400,0.000000,-235.359600
363.572705,10434.275600,78.453200,-156.906400
363.573010,9728.196800,235.359600,0.000000
363.573316,9963.556400,0.000000,0.000000
363.573622,10198.916000,549.172400,0.000000
363.573927,9728.196800,392.266000,-313.812800
363.574233,9806.650000,392.266000,-470.719200
363.574538,9963.556400,-313.812800,-470.719200
363.574844,9728.196800,0.000000,-235.359600
363.575150,9963.556400,-156.906400,-627.625600
363.575455,10042.009600,0.000000,0.000000
363.575761,9335.930800,-235.359600,0.000000
363.576066,10042.009600,627.625600,-156.906400
363.576372,10669.635200,313.812800,-235.359600
363.576678,9414.384000,313.812800,78.453200
363.576983,9885.103200,392.266000,784.532000
363.577289,10277.369200,0.000000,549.172400
363.577594,9885.103200,-549.172400,706.078800
363.577900,9885.103200,-156.906400,549.172400
363.578206,10042.009600,0.000000,706.078800
363.578511,10042.009600,-78.453200,0.000000
363.578817,9492.837200,0.000000,627.625600
363.579122,10277.369200,-78.453200,470.719200
363.579428,9728.196800,0.000000,1961.330000
363.579734,11140.354400,0.000000,862.985200
363.580039,10042.009600,1412.157600,392.266000
363.580345,9806.650000,392.266000,627.625600
363.580650,10042.009600,392.266000,78.453200
363.580956,10120.462800,392.266000,0.000000
363.581262,9649.743600,0.000000,-235.359600
363.581567,9885.103200,0.000000,-313.812800
363.581873,10120.462800,235.359600,-235.359600
363.582178,9728.196800,-235.359600,-549.172400
363.582484,9649.743600,78.453200,-549.172400
363.582790,9728.196800,235.359600,-706.078800
363.583095,9100.571200,549.172400,-706.078800
363.583401,9728.196800,0.000000,-784.532000
363.583706,9571.290400,0.000000,-627.625600
363.584012,10042.009600,0.000000,-313.812800
363.584318,9963.556400,-156.906400,-235.359600
363.584623,10042.009600,313.812800,-313.812800
363.584929,9649.743600,235.359600,-156.906400
363.585234,10277.369200,-627.625600,-235.359600
363.585540,10042.009600,0.000000,156.906400
363.585846,10355.822400,-156.906400,156.906400
363.586151,10042.009600,-392.266000,78.453200
363.586457,10512.728800,313.812800,0.000000
363.586762,10669.635200,0.000000,313.812800
363.587068,10120.462800,0.000000,0.000000
363.587374,9806.650000,0.000000,0.000000
363.587679,10277.369200,0.000000,156.906400
363.587985,9806.650000,392.266000,156.906400
363.588290,10042.009600,-235.359600,0.000000
363.588596,10434.275600,0.000000,0.000000
363.588902,9963.556400,235.359600,-156.906400
363.589207,10042.009600,78.453200,0.000000
363.589513,9963.556400,0.000000,-627.625600
363.589818,9649.743600,-392.266000,-392.266000
363.590124,9963.556400,-627.625600,-313.812800
363.590430,9571.290400,-627.625600,-627.625600
363.590735,9571.290400,-156.906400,-392.266000
363.591041,10198.916000,235.359600,-156.906400
363.591346,9885.103200,627.625600,-235.359600
363.591652,9571.290400,784.532000,-235.359600
363.591958,10042.009600,706.078800,0.000000
363.592263,10198.916000,0.000000,156.906400
363.592569,9806.650000,-156.906400,78.453200
363.592874,10434.275600,0.000000,627.625600
363.593180,10591.182000,0.000000,235.359600
363.593486,10042.009600,78.453200,0.000000
363.593791,10042.009600,706.078800,0.000000
363.594097,10198.916000,313.812800,-235.359600
363.594402,10355.822400,784.532000,-313.812800
363.594708,10042.009600,862.985200,0.000000
363.595014,9728.196800,470.719200,-156.906400
363.595319,9885.103200,627.625600,0.000000
363.595625,9885.103200,470.719200,0.000000
363.595930,9257.477600,0.000000,-392.266000
363.596236,9885.103200,78.453200,-235.359600
363.596542,10042.009600,235.359600,0.000000
363.596847,10042.009600,392.266000,-549.172400
363.597153,9806.650000,78.453200,-1255.251200
363.597458,8786.758400,784.532000,-784.532000
363.597764,9414.384000,0.000000,-706.078800
363.598070,10042.009600,235.359600,0.000000
363.598375,8943.664800,862.985200,-313.812800
363.598681,9963.556400,235.359600,0.000000
363.598986,9806.650000,784.532000,392.266000
363.599292,12395.605600,1255.251200,549.172400
363.599598,9649.743600,235.359600,0.000000
363.599903,9022.118000,78.453200,0.000000
363.600209,10983.448000,0.000000,235.359600
363.600514,10355.822400,0.000000,235.359600
363.600820,9492.837200,0.000000,0.000000
363.601126,10512.728800,313.812800,78.453200
363.601431,10591.182000,0.000000,0.000000
363.601737,9963.556400,-313.812800,78.453200
363.602042,10198.916000,0.000000,941.438400
363.602348,9728.196800,156.906400,-706.078800
363.602654,9885.103200,0.000000,0.000000
363.602959,10120.462800,0.000000,0.000000
363.603265,9885.103200,-156.906400,0.000000
363.603570,10042.009600,0.000000,-313.812800
363.603876,10669.635200,-941.438400,549.172400
363.604182,8708.305200,0.000000,-706.078800
363.604487,9963.556400,235.359600,-549.172400
363.604793,10277.369200,392.266000,0.000000
363.605098,9257.477600,0.000000,-313.812800
363.605404,10277.369200,0.000000,78.453200
363.605710,10434.275600,0.000000,0.000000
363.606015,9963.556400,0.000000,0.000000
363.606321,10277.369200,0.000000,313.812800
363.606626,10120.462800,0.000000,470.719200
363.606932,10277.369200,706.078800,470.719200
363.607238,10277.369200,313.812800,313.812800
363.607543,10042.009600,470.719200,156.906400
363.607849,10512.728800,392.266000,78.453200
363.608154,10355.822400,-313.812800,0.000000
363.608460,10120.462800,235.359600,470.719200
363.608766,9963.556400,-549.172400,470.719200
363.609071,10120.462800,-235.359600,235.359600
363.609377,9885.103200,0.000000,78.453200
363.609682,9963.556400,0.000000,-156.906400
363.609988,10042.009600,313.812800,-706.078800
363.610294,9806.650000,0.000000,-392.266000
363.610599,9885.103200,392.266000,-156.906400
363.610905,9649.743600,0.000000,0.000000
363.611210,9806.650000,0.000000,78.453200
363.611516,10042.009600,627.625600,549.172400
363.611822,9571.290400,-235.359600,0.000000
363.612127,9885.103200,156.906400,-156.906400
363.612433,9885.103200,0.000000,-156.906400
363.612738,9728.196800,156.906400,0.000000
363.613044,10042.009600,0.000000,78.453200
363.613350,9885.103200,-470.719200,0.000000
363.613655,10042.009600,0.000000,0.000000
363.613961,10042.009600,0.000000,0.000000
363.614266,9649.743600,156.906400,78.453200
363.614572,9963.556400,-627.625600,0.000000
363.614878,10198.916000,0.000000,0.000000
363.615183,9649.743600,78.453200,1019.891600
363.615489,11140.354400,-235.359600,549.172400
363.615794,10355.822400,706.078800,156.906400
363.616100,10198.916000,-706.078800,0.000000
363.616406,10669.635200,-156.906400,0.000000
363.616711,9728.196800,0.000000,-470.719200
363.617017,10198.916000,235.359600,-313.812800
363.617322,10042.009600,78.453200,-392.266000
363.617628,9963.556400,-392.266000,0.000000
363.617933,9571.290400,-392.266000,-235.359600
363.618239,10042.009600,-235.359600,78.453200
363.618545,9806.650000,-392.266000,-235.359600
363.618850,9806.650000,0.000000,-392.266000
363.619156,10198.916000,0.000000,0.000000
363.619461,9492.837200,78.453200,235.359600
363.619767,10042.009600,-235.359600,0.000000
363.620073,10512.728800,-235.359600,78.453200
363.620378,10042.009600,-156.906400,156.906400
363.620684,10042.009600,-313.812800,0.000000
363.620989,10277.369200,0.000000,862.985200
363.621295,9963.556400,156.906400,156.906400
363.621601,10198.916000,0.000000,0.000000
363.621906,9728.196800,0.000000,0.000000
363.622212,10198.916000,0.000000,78.453200
363.622517,10277.369200,78.453200,78.453200
363.622823,9728.196800,313.812800,235.359600
363.623129,9728.196800,78.453200,0.000000
363.623434,9728.196800,0.000000,-156.906400
363.623740,9963.556400,-470.719200,-392.266000
363.624045,9728.196800,0.000000,-313.812800
363.624351,10042.009600,-392.266000,0.000000
363.624657,10120.462800,-235.359600,0.000000
363.624962,9885.103200,78.453200,0.000000
363.625268,9885.103200,0.000000,-235.359600
363.625573,9728.196800,156.906400,0.000000
363.625879,9885.103200,549.172400,-235.359600
363.626185,9963.556400,0.000000,78.453200
363.626490,10042.009600,-235.359600,0.000000
363.626796,9963.556400,78.453200,156.906400
363.627101,9885.103200,-392.266000,78.453200
363.627407,10198.916000,0.000000,392.266000
363.627713,10120.462800,0.000000,0.000000
363.628018,9728.196800,78.453200,-235.359600
363.628324,9728.196800,0.000000,-392.266000
363.628629,10042.009600,0.000000,0.000000
363.628935,9728.196800,-627.625600,627.625600
363.629241,10904.994800,392.266000,862.985200
363.629546,9179.024400,706.078800,-706.078800
363.629852,10042.009600,0.000000,156.906400
363.630157,10355.822400,78.453200,0.000000
363.630463,9963.556400,313.812800,-235.359600
363.630769,9885.103200,-235.359600,-784.532000
363.631074,10120.462800,0.000000,-235.359600
363.631380,9335.930800,-706.078800,0.000000
363.631685,10042.009600,-313.812800,156.906400
363.631991,10355.822400,-706.078800,156.906400
363.632297,9571.290400,-627.625600,0.000000
363.632602,10042.009600,0.000000,470.719200
363.632908,10120.462800,0.000000,235.359600
363.633213,9414.384000,156.906400,156.906400
363.633519,10042.009600,0.000000,235.359600
363.633825,9571.290400,-470.719200,0.000000
363.634130,10120.462800,235.359600,1176.798000
363.634436,10904.994800,-941.438400,-156.906400
363.634741,9571.290400,0.000000,78.453200
363.635047,10042.009600,78.453200,156.906400
363.635353,10042.009600,470.719200,0.000000
363.635658,9571.290400,-156.906400,0.000000
363.635964,10434.275600,0.000000,0.000000
363.636269,10042.009600,78.453200,235.359600
363.636575,9571.290400,0.000000,-235.359600
363.636881,10042.009600,549.172400,0.000000
363.637186,9414.384000,78.453200,-627.625600
363.637492,9885.103200,78.453200,-627.625600
363.637797,9885.103200,156.906400,-549.172400
363.638103,9963.556400,-470.719200,-156.906400
363.638409,10042.009600,0.000000,-627.625600
363.638714,10042.009600,0.000000,78.453200
363.639020,10042.009600,0.000000,156.906400
363.639325,9963.556400,313.812800,392.266000
363.639631,10042.009600,0.000000,0.000000
363.639937,9571.290400,706.078800,0.000000
363.640242,9649.743600,0.000000,156.906400
363.640548,10042.009600,0.000000,313.812800
363.640853,10355.822400,392.266000,392.266000
363.641159,10042.009600,-313.812800,156.906400
363.641465,9728.196800,-156.906400,941.438400
363.641770,10355.822400,-392.266000,78.453200
363.642076,10198.916000,-470.719200,0.000000
363.642381,9728.196800,78.453200,0.000000
363.642687,10198.916000,-470.719200,235.359600
363.642993,10042.009600,392.266000,156.906400
363.643298,9649.743600,0.000000,0.000000
363.643604,9963.556400,0.000000,0.000000
363.643909,9963.556400,235.359600,-313.812800
363.644215,10042.009600,-156.906400,-392.266000
363.644521,9885.103200,-313.812800,-156.906400
363.644826,10042.009600,78.453200,-156.906400
363.645132,9885.103200,-313.812800,-313.812800
363.645437,9728.196800,0.000000,-156.906400
363.645743,9963.556400,0.000000,-313.812800
363.646049,9492.837200,78.453200,-235.359600
363.646354,10120.462800,0.000000,-392.266000
363.646660,9963.556400,0.000000,-156.906400
363.646965,9963.556400,-313.812800,-313.812800
363.647271,9963.556400,156.906400,-235.359600
363.647577,10120.462800,313.812800,156.906400
363.647882,10434.275600,0.000000,392.266000
363.648188,10512.728800,313.812800,235.359600
363.648493,10042.009600,0.000000,156.906400
363.648799,10512.728800,235.359600,78.453200
363.649105,10277.369200,0.000000,235.359600
363.649410,10434.275600,-549.172400,470.719200
363.649716,10591.182000,0.000000,392.266000
363.650021,10042.009600,313.812800,235.359600
363.650327,9728.196800,392.266000,235.359600
363.650633,9728.196800,1647.517200,-235.359600
363.650938,9649.743600,0.000000,0.000000
363.651244,9963.556400,235.359600,78.453200
363.651549,9885.103200,627.625600,-235.359600
363.651855,9963.556400,392.266000,0.000000
363.652161,9335.930800,313.812800,-313.812800
363.652466,9571.290400,0.000000,78.453200
363.652772,10042.009600,156.906400,0.000000
363.653077,9571.290400,235.359600,0.000000
363.653383,10826.541600,862.985200,0.000000
363.653689,9571.290400,549.172400,-313.812800
363.653994,9335.930800,470.719200,-392.266000
363.654300,10355.822400,156.906400,0.000000
363.654605,10042.009600,0.000000,78.453200
363.654911,9649.743600,-235.359600,0.000000
363.655217,10042.009600,549.172400,156.906400
363.655522,10277.369200,470.719200,156.906400
363.655828,9963.556400,0.000000,549.172400
363.656133,9649.743600,0.000000,78.453200
363.656439,10042.009600,392.266000,0.000000
363.656745,10198.916000,392.266000,235.359600
363.657050,9885.103200,0.000000,0.000000
363.657356,9963.556400,0.000000,156.906400
363.657661,10198.916000,313.812800,-313.812800
363.657967,10042.009600,0.000000,-470.719200
363.658273,9885.103200,0.000000,-313.812800
363.658578,9885.103200,0.000000,-313.812800
363.658884,10042.009600,0.000000,-156.906400
363.659189,9728.196800,-392.266000,392.266000
363.659495,9492.837200,-313.812800,0.000000
363.659801,9885.103200,0.000000,78.453200
363.660106,9885.103200,0.000000,0.000000
363.660412,9963.556400,156.906400,0.000000
363.660717,9728.196800,392.266000,706.078800
363.661023,10120.462800,78.453200,392.266000
363.661329,10434.275600,0.000000,549.172400
363.661634,10042.009600,156.906400,549.172400
363.661940,10042.009600,549.172400,78.453200
363.662245,10826.541600,0.000000,0.000000
363.662551,10277.369200,156.906400,0.000000
363.662857,9806.650000,-549.172400,235.359600
363.663162,9728.196800,-156.906400,156.906400
363.663468,10198.916000,0.000000,156.906400
363.663773,9728.196800,-627.625600,627.625600
363.664079,9728.196800,-392.266000,313.812800
363.664385,9885.103200,-156.906400,392.266000
363.664690,9963.556400,156.906400,-313.812800
363.664996,10277.369200,78.453200,0.000000
363.665301,9728.196800,235.359600,-235.359600
363.665607,10120.462800,392.266000,-235.359600
363.665913,9885.103200,78.453200,-313.812800
363.666218,9649.743600,0.000000,0.000000
363.666524,9885.103200,156.906400,0.000000
363.666829,10042.009600,0.000000,-313.812800
363.667135,9963.556400,0.000000,-470.719200
363.667441,9885.103200,0.000000,0.000000
363.667746,9963.556400,392.266000,0.000000
363.668052,10120.462800,392.266000,0.000000
363.668357,10120.462800,0.000000,156.906400
363.668663,9335.930800,0.000000,0.000000
363.668969,9571.290400,-78.453200,0.000000
363.669274,10120.462800,-941.438400,-78.453200
363.669580,9885.103200,235.359600,-392.266000
363.669885,9022.118000,-392.266000,1019.891600
363.670191,10512.728800,0.000000,0.000000
363.670497,9963.556400,-78.453200,-392.266000
363.670802,9885.103200,0.000000,-156.906400
363.671108,9571.290400,313.812800,0.000000
363.671413,10120.462800,0.000000,-235.359600
363.671719,10198.916000,470.719200,-470.719200
363.672025,9728.196800,78.453200,-549.172400
363.672330,9963.556400,0.000000,-549.172400
363.672636,10042.009600,-313.812800,-235.359600
363.672941,9963.556400,-392.266000,0.000000
363.673247,9963.556400,-313.812800,313.812800
363.673553,10355.822400,-156.906400,0.000000
363.673858,9728.196800,0.000000,-549.172400
363.674164,9963.556400,0.000000,-470.719200
363.674469,9806.650000,0.000000,-313.812800
363.674775,10042.009600,235.359600,-156.906400
363.675081,10512.728800,-313.812800,156.906400
363.675386,10042.009600,235.359600,0.000000
363.675692,9963.556400,0.000000,0.000000
363.675997,10042.009600,0.000000,0.000000
363.676303,10434.275600,-313.812800,156.906400
363.676609,10198.916000,0.000000,0.000000
363.676914,10434.275600,0.000000,-156.906400
363.677220,10120.462800,235.359600,0.000000
363.677525,10042.009600,0.000000,0.000000
363.677831,9885.103200,78.453200,0.000000
363.678137,10198.916000,0.000000,0.000000
363.678442,10042.009600,235.359600,0.000000
363.678748,9414.384000,235.359600,-156.906400
363.679053,9335.930800,-156.906400,-392.266000
363.679359,10120.462800,78.453200,0.000000
363.679664,10355.822400,-156.906400,313.812800
363.679970,9963.556400,0.000000,0.000000
363.680276,10042.009600,0.000000,0.000000
363.680581,9963.556400,235.359600,0.000000
363.680887,9649.743600,235.359600,-470.719200
363.681192,9806.650000,78.453200,-549.172400
363.681498,9885.103200,313.812800,156.906400
363.681804,10042.009600,-235.359600,0.000000
363.682109,10042.009600,0.000000,235.359600
363.682415,10120.462800,-313.812800,392.266000
363.682720,10120.462800,235.359600,0.000000
363.683026,10512.728800,-313.812800,706.078800
363.683332,9885.103200,-235.359600,235.359600
363.683637,10277.369200,549.172400,235.359600
363.683943,10120.462800,78.453200,156.906400
363.684248,11924.886400,0.000000,1412.157600
363.684554,9335.930800,470.719200,549.172400
363.684860,9728.196800,0.000000,0.000000
363.685165,10591.182000,0.000000,156.906400
363.685471,9649.743600,-392.266000,78.453200
363.685776,9571.290400,-392.266000,78.453200
363.686082,10512.728800,0.000000,470.719200
363.686388,9492.837200,-313.812800,313.812800
363.686693,9963.556400,706.078800,0.000000
363.686999,10042.009600,235.359600,156.906400
363.687304,10120.462800,0.000000,235.359600
363.687610,9963.556400,235.359600,0.000000
363.687916,8786.758400,392.266000,-392.266000
363.688221,9728.196800,0.000000,-156.906400
363.688527,9885.103200,78.453200,0.000000
363.688832,10042.009600,-235.359600,0.000000
363.689138,10983.448000,-392.266000,1255.251200
363.689444,9649.743600,706.078800,0.000000
363.689749,10198.916000,0.000000,156.906400
363.690055,10355.822400,-549.172400,156.906400
363.690360,9963.556400,235.359600,-156.906400
363.690666,10198.916000,78.453200,0.000000
363.690972,10669.635200,-392.266000,-235.359600
363.691277,9728.196800,78.453200,235.359600
363.691583,10198.916000,-627.625600,235.359600
363.691888,10277.369200,156.906400,392.266000
363.692194,10042.009600,0.000000,470.719200
363.692500,10120.462800,706.078800,0.000000
363.692805,10434.275600,156.906400,0.000000
363.693111,10434.275600,0.000000,313.812800
363.693416,9963.556400,470.719200,0.000000
363.693722,10042.009600,313.812800,156.906400
363.694028,10042.009600,627.625600,0.000000
363.694333,9885.103200,313.812800,156.906400
363.694639,9806.650000,0.000000,0.000000
363.694944,9885.103200,0.000000,0.000000
363.695250,10120.462800,235.359600,0.000000
363.695556,10042.009600,0.000000,0.000000
363.695861,9335.930800,0.000000,313.812800
363.696167,9806.650000,0.000000,0.000000
363.696472,9885.103200,0.000000,-235.359600
363.696778,9257.477600,156.906400,-235.359600
363.697084,9885.103200,-313.812800,0.000000
363.697389,11061.901200,-1490.610800,0.000000
363.697695,8394.492400,0.000000,0.000000
363.698000,9806.650000,-235.359600,-392.266000
363.698306,9649.743600,156.906400,-470.719200
363.698612,9649.743600,-706.078800,-549.172400
363.698917,9885.103200,0.000000,-313.812800
363.699223,9571.290400,470.719200,-392.266000
363.699528,10042.009600,-156.906400,-470.719200
363.699834,10669.635200,-235.359600,-313.812800
363.700140,10120.462800,0.000000,-706.078800
363.700445,10042.009600,784.532000,-313.812800
363.700751,10512.728800,0.000000,-313.812800
363.701056,10198.916000,0.000000,-156.906400
363.701362,10198.916000,-235.359600,-156.906400
363.701668,10042.009600,-235.359600,0.000000
363.701973,10512.728800,0.000000,-784.532000
363.702279,10042.009600,-392.266000,-156.906400
363.702584,9806.650000,0.000000,0.000000
363.702890,9728.196800,-392.266000,0.000000
363.703196,10042.009600,0.000000,-235.359600
363.703501,10355.822400,0.000000,0.000000
363.703807,10042.009600,-156.906400,0.000000
363.704112,9728.196800,-156.906400,0.000000
363.704418,10042.009600,-156.906400,0.000000
363.704724,9100.571200,-470.719200,1019.891600
363.705029,11218.807600,-549.172400,313.812800
363.705335,10512.728800,1176.798000,0.000000
363.705640,9492.837200,706.078800,470.719200
363.705946,10591.182000,-313.812800,313.812800
363.706252,9963.556400,-156.906400,-706.078800
363.706557,9885.103200,-156.906400,0.000000
363.706863,10355.822400,-313.812800,-549.172400
363.707168,9571.290400,156.906400,-235.359600
363.707474,9649.743600,0.000000,-549.172400
363.707780,10355.822400,-392.266000,-313.812800
363.708085,9492.837200,0.000000,156.906400
363.708391,10669.635200,549.172400,0.000000
363.708696,10120.462800,235.359600,-392.266000
363.709002,9885.103200,0.000000,235.359600
363.709308,10591.182000,0.000000,470.719200
363.709613,10120.462800,0.000000,313.812800
363.709919,9728.196800,78.453200,470.719200
363.710224,10355.822400,0.000000,470.719200
363.710530,10042.009600,0.000000,627.625600
363.710836,9885.103200,-235.359600,549.172400
363.711141,10277.369200,0.000000,784.532000
363.711447,9806.650000,-392.266000,627.625600
363.711752,9649.743600,549.172400,784.532000
363.712058,10042.009600,313.812800,235.359600
363.712364,9885.103200,313.812800,0.000000
363.712669,9414.384000,0.000000,-156.906400
363.712975,9728.196800,313.812800,0.000000
363.713280,10198.916000,78.453200,78.453200
363.713586,10042.009600,0.000000,235.359600
363.713892,9649.743600,78.453200,392.266000
363.714197,9728.196800,156.906400,78.453200
363.714503,10042.009600,78.453200,0.000000
363.714808,9571.290400,784.532000,-313.812800
363.715114,9806.650000,235.359600,0.000000
363.715420,10042.009600,156.906400,0.000000
363.715725,10042.009600,0.000000,313.812800
363.716031,10120.462800,156.906400,156.906400
363.716336,9806.650000,313.812800,392.266000
363.716642,10434.275600,-392.266000,313.812800
363.716948,10198.916000,-156.906400,313.812800
363.717253,9963.556400,-470.719200,235.359600
363.717559,9649.743600,0.000000,156.906400
363.717864,10355.822400,-235.359600,1255.251200
363.718170,10042.009600,0.000000,549.172400
363.718476,9963.556400,313.812800,313.812800
363.718781,9885.103200,0.000000,392.266000
363.719087,9963.556400,0.000000,156.906400
363.719392,10042.009600,156.906400,78.453200
363.719698,9806.650000,0.000000,156.906400
363.720004,10042.009600,0.000000,0.000000
363.720309,10042.009600,-313.812800,0.000000
363.720615,9806.650000,0.000000,-156.906400
363.720920,9885.103200,-470.719200,156.906400
363.721226,10434.275600,-470.719200,0.000000
363.721532,9885.103200,-549.172400,0.000000
363.721837,9571.290400,-235.359600,156.906400
363.722143,10355.822400,0.000000,0.000000
363.722448,9885.103200,-156.906400,0.000000
363.722754,10042.009600,-78.453200,-313.812800
363.723060,10042.009600,0.000000,-78.453200
363.723365,10277.369200,-392.266000,0.000000
363.723671,9571.290400,-235.359600,235.359600
363.723976,10591.182000,-627.625600,0.000000
363.724282,10512.728800,0.000000,0.000000
363.724588,10277.369200,0.000000,862.985200
363.724893,9963.556400,-392.266000,0.000000
363.725199,10042.009600,0.000000,78.453200
363.725504,10042.009600,-235.359600,0.000000
363.725810,9885.103200,156.906400,0.000000
363.726116,10277.369200,78.453200,-313.812800
363.726421,9806.650000,0.000000,-392.266000
363.726727,10042.009600,0.000000,0.000000
363.727032,10042.009600,78.453200,0.000000
363.727338,9806.650000,235.359600,156.906400
363.727644,10042.009600,0.000000,-549.172400
363.727949,9885.103200,0.000000,-392.266000
363.728255,9963.556400,0.000000,-392.266000
363.728560,10042.009600,78.453200,-706.078800
363.728866,9806.650000,235.359600,-549.172400
363.729172,10042.009600,0.000000,-470.719200
363.729477,9806.650000,0.000000,-549.172400
363.729783,9885.103200,313.812800,-392.266000
363.730088,10120.462800,313.812800,0.000000
363.730394,10434.275600,313.812800,0.000000
363.730700,10512.728800,0.000000,156.906400
363.731005,9963.556400,313.812800,313.812800
363.731311,10120.462800,706.078800,313.812800
363.731616,10434.275600,235.359600,78.453200
363.731922,10120.462800,313.812800,313.812800
363.732228,9885.103200,549.172400,627.625600
363.732533,10120.462800,156.906400,392.266000
363.732839,9571.290400,0.000000,392.266000
363.733144,10120.462800,0.000000,78.453200
363.733450,9885.103200,-156.906400,0.000000
363.733756,9492.837200,78.453200,0.000000
363.734061,9963.556400,0.000000,-470.719200
363.734367,9335.930800,0.000000,-1333.704400
363.734672,9728.196800,0.000000,-1333.704400
363.734978,9806.650000,-156.906400,-1412.157600
363.735284,9335.930800,-470.719200,-1255.251200
363.735589,10042.009600,-784.532000,-1490.610800
363.735895,9728.196800,0.000000,-1333.704400
363.736200,9571.290400,-392.266000,-1490.610800
363.736506,10042.009600,0.000000,-1255.251200
363.736812,9963.556400,0.000000,-1019.891600
363.737117,10042.009600,0.000000,-706.078800
363.737423,10198.916000,78.453200,-470.719200
363.737728,10591.182000,0.000000,-313.812800
363.738034,10434.275600,0.000000,235.359600
363.738340,10355.822400,78.453200,235.359600
363.738645,10512.728800,0.000000,313.812800
363.738951,10669.635200,78.453200,470.719200
363.739256,9100.571200,-78.453200,1255.251200
363.739562,10277.369200,156.906400,156.906400
363.739868,10042.009600,862.985200,0.000000
363.740173,9335.930800,313.812800,313.812800
363.740479,10355.822400,235.359600,470.719200
363.740784,10669.635200,-706.078800,1098.344800
363.741090,9335.930800,941.438400,549.172400
363.741395,10904.994800,627.625600,0.000000
363.741701,8786.758400,-313.812800,156.906400
363.742007,9492.837200,0.000000,-78.453200
363.742312,10826.541600,470.719200,-392.266000
363.742618,9571.290400,470.719200,-392.266000
363.742923,9806.650000,549.172400,-156.906400
363.743229,9806.650000,784.532000,-392.266000
363.743535,9728.196800,313.812800,0.000000
363.743840,10120.462800,392.266000,0.000000
363.744146,9414.384000,627.625600,0.000000
363.744451,9649.743600,470.719200,0.000000
363.744757,10277.369200,549.172400,313.812800
363.745063,9806.650000,235.359600,392.266000
363.745368,9885.103200,392.266000,549.172400
363.745674,10355.822400,784.532000,392.266000
363.745979,10904.994800,78.453200,706.078800
363.746285,9649.743600,470.719200,0.000000
363.746591,10042.009600,627.625600,0.000000
363.746896,10277.369200,-235.359600,470.719200
363.747202,10826.541600,156.906400,706.078800
363.747507,10120.462800,0.000000,549.172400
363.747813,10277.369200,0.000000,627.625600
363.748119,9963.556400,78.453200,392.266000
363.748424,10042.009600,-235.359600,392.266000
363.748730,9885.103200,0.000000,1333.704400
363.749035,10277.369200,-470.719200,392.266000
363.749341,10042.009600,0.000000,313.812800
363.749647,9806.650000,0.000000,0.000000
363.749952,9963.556400,-235.359600,0.000000
363.750258,10042.009600,-156.906400,-392.266000
363.750563,9728.196800,-235.359600,-470.719200
363.750869,9728.196800,0.000000,-156.906400
363.751175,9963.556400,0.000000,0.000000
363.751480,10042.009600,0.000000,0.000000
363.751786,10120.462800,-156.906400,156.906400
363.752091,9806.650000,-627.625600,-156.906400
363.752397,9728.196800,156.906400,0.000000
363.752703,10042.009600,78.453200,156.906400
363.753008,10042.009600,-156.906400,78.453200
363.753314,9885.103200,0.000000,235.359600
363.753619,10434.275600,-235.359600,235.359600
363.753925,10277.369200,-470.719200,549.172400
363.754231,9963.556400,0.000000,313.812800
363.754536,10042.009600,-235.359600,156.906400
363.754842,9885.103200,0.000000,0.000000
363.755147,9963.556400,-706.078800,392.266000
363.755453,10669.635200,313.812800,-313.812800
363.755759,9414.384000,78.453200,0.000000
363.756064,9806.650000,0.000000,0.000000
363.756370,10042.009600,-156.906400,0.000000
363.756675,9885.103200,-549.172400,-156.906400
363.756981,9414.384000,313.812800,0.000000
363.757287,9571.290400,78.453200,-470.719200
363.757592,9963.556400,156.906400,-470.719200
363.757898,10042.009600,78.453200,-235.359600
363.758203,10042.009600,156.906400,0.000000
363.758509,9571.290400,470.719200,235.359600
363.758815,10591.182000,-862.985200,156.906400
363.759120,10042.009600,549.172400,-392.266000
363.759426,9885.103200,-156.906400,1176.798000
363.759731,11218.807600,-392.266000,235.359600
363.760037,9728.196800,1098.344800,0.000000
363.760343,9885.103200,78.453200,0.000000
363.760648,9963.556400,0.000000,-156.906400
363.760954,10512.728800,0.000000,156.906400
363.761259,9963.556400,-392.266000,0.000000
363.761565,9649.743600,0.000000,0.000000
363.761871,10983.448000,0.000000,78.453200
363.762176,9963.556400,156.906400,-549.172400
363.762482,9414.384000,156.906400,-313.812800
363.762787,9885.103200,156.906400,0.000000
363.763093,10120.462800,0.000000,-1098.344800
363.763399,9492.837200,-313.812800,-235.359600
363.763704,10120.462800,235.359600,0.000000
363.764010,9806.650000,470.719200,-549.172400
363.764315,10120.462800,0.000000,-627.625600
363.764621,9963.556400,235.359600,-392.266000
363.764927,9257.477600,78.453200,-627.625600
363.765232,10277.369200,0.000000,-313.812800
363.765538,10042.009600,-235.359600,-235.359600
363.765843,10120.462800,-392.266000,235.359600
363.766149,10120.462800,-392.266000,78.453200
363.766455,10434.275600,0.000000,313.812800
363.766760,10120.462800,156.906400,549.172400
363.767066,9963.556400,-392.266000,627.625600
363.767371,10042.009600,0.000000,392.266000
363.767677,10198.916000,0.000000,156.906400
363.767983,9728.196800,627.625600,0.000000
363.768288,9649.743600,392.266000,-549.172400
363.768594,10120.462800,78.453200,0.000000
363.768899,10277.369200,0.000000,78.453200
363.769205,9885.103200,-313.812800,156.906400
363.769511,10042.009600,-235.359600,862.985200
363.769816,10042.009600,-156.906400,235.359600
363.770122,9806.650000,0.000000,78.453200
363.770427,10042.009600,784.532000,0.000000
363.770733,9806.650000,862.985200,-235.359600
363.771039,10042.009600,78.453200,-235.359600
363.771344,9885.103200,313.812800,156.906400
363.771650,9885.103200,-392.266000,156.906400
363.771955,10355.822400,-549.172400,313.812800
363.772261,10355.822400,-235.359600,78.453200
363.772567,9492.837200,-313.812800,0.000000
363.772872,10198.916000,-235.359600,78.453200
363.773178,9806.650000,0.000000,0.000000
363.773483,9806.650000,235.359600,0.000000
363.773789,9963.556400,0.000000,0.000000
363.774095,9885.103200,156.906400,235.359600
363.774400,10120.462800,235.359600,235.359600
363.774706,10198.916000,0.000000,156.906400
363.775011,10042.009600,-313.812800,0.000000
363.775317,10277.369200,0.000000,156.906400
363.775623,10198.916000,0.000000,313.812800
363.775928,10355.822400,235.359600,313.812800
363.776234,9963.556400,0.000000,78.453200
363.776539,10198.916000,0.000000,235.359600
363.776845,10042.009600,0.000000,-78.453200
363.777151,10120.462800,0.000000,0.000000
363.777456,10042.009600,78.453200,392.266000
363.777762,9963.556400,0.000000,0.000000
363.778067,10198.916000,78.453200,-470.719200
363.778373,8943.664800,0.000000,235.359600
363.778679,9728.196800,392.266000,0.000000
363.778984,10198.916000,313.812800,78.453200
363.779290,10198.916000,-706.078800,156.906400
363.779595,10042.009600,392.266000,0.000000
363.779901,9963.556400,392.266000,-156.906400
363.780207,9885.103200,313.812800,-313.812800
363.780512,9806.650000,470.719200,-313.812800
363.780818,9885.103200,78.453200,0.000000
363.781123,9571.290400,0.000000,0.000000
363.781429,9728.196800,-549.172400,78.453200
363.781735,9649.743600,-549.172400,0.000000
363.782040,9728.196800,235.359600,0.000000
363.782346,10512.728800,0.000000,156.906400
363.782651,9571.290400,78.453200,0.000000
363.782957,9885.103200,392.266000,78.453200
363.783263,9963.556400,313.812800,0.000000
363.783568,10042.009600,313.812800,0.000000
363.783874,10355.822400,-470.719200,0.000000
363.784179,9806.650000,0.000000,0.000000
363.784485,10277.369200,-235.359600,0.000000
363.784791,10042.009600,-156.906400,-313.812800
363.785096,10120.462800,-156.906400,-156.906400
363.785402,10434.275600,0.000000,-392.266000
363.785707,10355.822400,313.812800,-862.985200
363.786013,10042.009600,392.266000,-313.812800
363.786319,9806.650000,235.359600,-549.172400
363.786624,10120.462800,392.266000,0.000000
363.786930,10042.009600,-1333.704400,0.000000
363.787235,11140.354400,235.359600,0.000000
363.787541,7531.507200,549.172400,78.453200
363.787847,10826.541600,627.625600,0.000000
363.788152,9963.556400,-156.906400,-549.172400
363.788458,9100.571200,-549.172400,-941.438400
363.788763,10120.462800,941.438400,-392.266000
363.789069,9571.290400,-156.906400,-784.532000
363.789375,10120.462800,-627.625600,-706.078800
363.789680,9963.556400,-627.625600,-784.532000
363.789986,9492.837200,-235.359600,0.000000
363.790291,9885.103200,-549.172400,0.000000
363.790597,10198.916000,-313.812800,156.906400
363.790903,9885.103200,0.000000,0.000000
363.791208,10042.009600,-313.812800,0.000000
363.791514,10434.275600,0.000000,-313.812800
363.791819,10904.994800,0.000000,-156.906400
363.792125,10042.009600,235.359600,0.000000
363.792431,9885.103200,313.812800,-235.359600
363.792736,10355.822400,-392.266000,78.453200
363.793042,9963.556400,-392.266000,235.359600
363.793347,10042.009600,-392.266000,0.000000
363.793653,10042.009600,0.000000,235.359600
363.793959,9649.743600,313.812800,0.000000
363.794264,9885.103200,78.453200,-235.359600
363.794570,10042.009600,235.359600,-313.812800
363.794875,10042.009600,941.438400,0.000000
363.795181,11454.167200,0.000000,627.625600
363.795487,8786.758400,941.438400,-313.812800
363.795792,10042.009600,0.000000,-235.359600
363.796098,10120.462800,0.000000,0.000000
363.796403,8472.945600,235.359600,-941.438400
363.796709,9257.477600,235.359600,-235.359600
363.797015,10512.728800,0.000000,313.812800
363.797320,9414.384000,0.000000,0.000000
363.797626,10042.009600,470.719200,0.000000
363.797931,9885.103200,235.359600,235.359600
363.798237,9963.556400,706.078800,392.266000
363.798543,10042.009600,470.719200,235.359600
363.798848,9885.103200,0.000000,313.812800
363.799154,10042.009600,0.000000,470.719200
363.799459,10042.009600,0.000000,549.172400
363.799765,10042.009600,-549.172400,706.078800
363.800071,9806.650000,0.000000,627.625600
363.800376,10512.728800,235.359600,627.625600
363.800682,10277.369200,784.532000,0.000000
363.800987,9492.837200,235.359600,0.000000
363.801293,10277.369200,156.906400,470.719200
363.801599,10277.369200,78.453200,0.000000
363.801904,9649.743600,0.000000,0.000000
363.802210,9963.556400,0.000000,235.359600
363.802515,9806.650000,-706.078800,235.359600
363.802821,10198.916000,-392.266000,392.266000
363.803126,9885.103200,78.453200,-156.906400
363.803432,9414.384000,-156.906400,0.000000
363.803738,10198.916000,0.000000,313.812800
363.804043,10198.916000,-392.266000,78.453200
363.804349,10042.009600,-235.359600,0.000000
363.804654,9963.556400,0.000000,0.000000
363.804960,10120.462800,-1255.251200,627.625600
363.805266,9414.384000,0.000000,-627.625600
363.805571,10669.635200,-156.906400,0.000000
363.805877,10355.822400,0.000000,235.359600
363.806182,10120.462800,78.453200,156.906400
363.806488,10434.275600,0.000000,0.000000
363.806794,10198.916000,0.000000,235.359600
363.807099,9728.196800,-235.359600,78.453200
363.807405,10355.822400,78.453200,78.453200
363.807710,10120.462800,0.000000,392.266000
363.808016,9885.103200,-549.172400,0.000000
363.808322,10042.009600,-235.359600,0.000000
363.808627,10434.275600,313.812800,78.453200
363.808933,9885.103200,-706.078800,235.359600
363.809238,9100.571200,-941.438400,0.000000
363.809544,11924.886400,-1019.891600,235.359600
363.809850,8786.758400,470.719200,0.000000
363.810155,9571.290400,392.266000,0.000000
363.810461,10042.009600,78.453200,-235.359600
363.810766,9885.103200,0.000000,0.000000
363.811072,10042.009600,156.906400,0.000000
363.811378,9728.196800,470.719200,0.000000
363.811683,9963.556400,235.359600,-313.812800
363.811989,10120.462800,313.812800,-392.266000
363.812294,9571.290400,784.532000,156.906400
363.812600,9179.024400,313.812800,-706.078800
363.812906,10120.462800,549.172400,-784.532000
363.813211,10042.009600,78.453200,-78.453200
363.813517,10904.994800,-1255.251200,0.000000
363.813822,9806.650000,-78.453200,-235.359600
363.814128,10434.275600,-470.719200,470.719200
363.814434,10669.635200,-78.453200,78.453200
363.814739,9963.556400,235.359600,-156.906400
363.815045,9806.650000,0.000000,-470.719200
363.815350,9806.650000,0.000000,-470.719200
363.815656,10669.635200,0.000000,0.000000
363.815962,10198.916000,78.453200,-156.906400
363.816267,10355.822400,-392.266000,0.000000
363.816573,11297.260800,0.000000,470.719200
363.816878,10198.916000,0.000000,0.000000
363.817184,9963.556400,1019.891600,313.812800
363.817490,10277.369200,235.359600,-235.359600
363.817795,10042.009600,78.453200,-313.812800
363.818101,10042.009600,156.906400,-313.812800
363.818406,10120.462800,0.000000,-313.812800
363.818712,10042.009600,627.625600,78.453200
363.819018,10198.916000,156.906400,-627.625600
363.819323,9806.650000,0.000000,-470.719200
363.819629,9806.650000,156.906400,-706.078800
363.819934,10120.462800,-156.906400,-627.625600
363.820240,10120.462800,-392.266000,-235.359600
363.820546,9885.103200,0.000000,-470.719200
363.820851,10042.009600,78.453200,-313.812800
363.821157,10042.009600,78.453200,0.000000
363.821462,10042.009600,235.359600,78.453200
363.821768,9885.103200,706.078800,470.719200
363.822074,10277.369200,392.266000,156.906400
363.822379,10198.916000,706.078800,0.000000
363.822685,9649.743600,706.078800,-156.906400
363.822990,9885.103200,392.266000,-156.906400
363.823296,9728.196800,313.812800,-78.453200
363.823602,9885.103200,470.719200,-549.172400
363.823907,9806.650000,156.906400,0.000000
363.824213,9885.103200,470.719200,0.000000
363.824518,10120.462800,392.266000,-313.812800
363.824824,9806.650000,627.625600,0.000000
363.825130,9806.650000,784.532000,0.000000
363.825435,10042.009600,392.266000,-392.266000
363.825741,10120.462800,392.266000,-313.812800
363.826046,9728.196800,78.453200,0.000000
363.826352,9728.196800,235.359600,78.453200
363.826658,9492.837200,0.000000,78.453200
363.826963,10120.462800,-392.266000,78.453200
363.827269,9571.290400,-235.359600,78.453200
363.827574,9806.650000,-392.266000,0.000000
363.827880,10512.728800,0.000000,0.000000
363.828186,10042.009600,0.000000,0.000000
363.828491,10277.369200,156.906400,0.000000
363.828797,10042.009600,706.078800,0.000000
363.829102,10198.916000,-235.359600,0.000000
363.829408,10042.009600,0.000000,0.000000
363.829714,9963.556400,0.000000,941.438400
363.830019,9963.556400,-392.266000,470.719200
363.830325,10198.916000,78.453200,549.172400
363.830630,9885.103200,-235.359600,470.719200
363.830936,10591.182000,235.359600,0.000000
363.831242,10042.009600,156.906400,0.000000
363.831547,10042.009600,0.000000,-470.719200
363.831853,9885.103200,392.266000,-862.985200
363.832158,10042.009600,0.000000,549.172400
363.832464,10591.182000,0.000000,235.359600
363.832770,9806.650000,-392.266000,470.719200
363.833075,10355.822400,235.359600,-235.359600
363.833381,10042.009600,-235.359600,392.266000
363.833686,10042.009600,-313.812800,0.000000
363.833992,9728.196800,235.359600,0.000000
363.834298,9885.103200,78.453200,-156.906400
363.834603,9414.384000,313.812800,0.000000
363.834909,9806.650000,392.266000,0.000000
363.835214,9885.103200,313.812800,156.906400
363.835520,9885.103200,156.906400,627.625600
363.835826,10042.009600,235.359600,78.453200
363.836131,9649.743600,313.812800,313.812800
363.836437,10042.009600,-392.266000,78.453200
363.836742,10277.369200,156.906400,78.453200
363.837048,10120.462800,0.000000,235.359600
363.837354,9963.556400,-313.812800,392.266000
363.837659,10120.462800,313.812800,470.719200
363.837965,10355.822400,156.906400,313.812800
363.838270,9963.556400,392.266000,549.172400
363.838576,9885.103200,470.719200,156.906400
363.838882,10042.009600,78.453200,0.000000
363.839187,10042.009600,392.266000,0.000000
363.839493,10120.462800,706.078800,-156.906400
363.839798,10042.009600,0.000000,156.906400
363.840104,10120.462800,0.000000,313.812800
363.840410,9885.103200,-627.625600,0.000000
363.840715,10120.462800,0.000000,-235.359600
363.841021,10198.916000,78.453200,0.000000
363.841326,10042.009600,0.000000,-470.719200
363.841632,10042.009600,-392.266000,-235.359600
363.841938,9728.196800,-392.266000,0.000000
363.842243,9728.196800,0.000000,0.000000
363.842549,9806.650000,392.266000,0.000000
363.842854,10042.009600,-392.266000,0.000000
363.843160,9885.103200,-549.172400,0.000000
363.843466,10042.009600,-627.625600,0.000000
363.843771,10120.462800,-627.625600,0.000000
363.844077,10355.822400,-627.625600,235.359600
363.844382,10120.462800,-313.812800,78.453200
363.844688,10042.009600,0.000000,78.453200
363.844994,10198.916000,-392.266000,-156.906400
363.845299,9885.103200,-156.906400,0.000000
363.845605,8316.039200,-470.719200,-156.906400
363.845910,11297.260800,-1019.891600,313.812800
363.846216,10826.541600,-706.078800,78.453200
363.846522,9335.930800,-706.078800,156.906400
363.846827,10904.994800,0.000000,313.812800
363.847133,10042.009600,-156.906400,627.625600
363.847438,9649.743600,235.359600,0.000000
363.847744,9728.196800,156.906400,0.000000
363.848050,11061.901200,-313.812800,549.172400
363.848355,8865.211600,0.000000,-1098.344800
363.848661,11218.807600,-235.359600,-313.812800
363.848966,9728.196800,-156.906400,-156.906400
363.849272,10042.009600,-392.266000,-313.812800
363.849578,10434.275600,0.000000,-78.453200
363.849883,10277.369200,392.266000,0.000000
363.850189,9492.837200,0.000000,0.000000
363.850494,10198.916000,-1255.251200,1176.798000
363.850800,10277.369200,-313.812800,0.000000
363.851106,9571.290400,0.000000,78.453200
363.851411,10277.369200,784.532000,-235.359600
363.851717,9571.290400,470.719200,0.000000
363.852022,10277.369200,0.000000,-156.906400
363.852328,9963.556400,156.906400,0.000000
363.852634,10434.275600,0.000000,0.000000
363.852939,10042.009600,-235.359600,0.000000
363.853245,9806.650000,-235.359600,0.000000
363.853550,10277.369200,706.078800,0.000000
363.853856,9885.103200,156.906400,-313.812800
363.854162,9649.743600,470.719200,-706.078800
363.854467,9492.837200,470.719200,-627.625600
363.854773,10277.369200,-235.359600,-392.266000
363.855078,10042.009600,-392.266000,-156.906400
363.855384,9806.650000,-470.719200,-156.906400
363.855690,9963.556400,-549.172400,0.000000
363.855995,10198.916000,-156.906400,156.906400
363.856301,9885.103200,0.000000,0.000000
363.856606,9885.103200,627.625600,-392.266000
363.856912,10042.009600,941.438400,-313.812800
363.857218,9806.650000,0.000000,0.000000
363.857523,10042.009600,0.000000,0.000000
363.857829,10042.009600,-156.906400,78.453200
363.858134,10042.009600,0.000000,156.906400
363.858440,10120.462800,-470.719200,392.266000
363.858746,10042.009600,0.000000,156.906400
363.859051,9649.743600,0.000000,0.000000
363.859357,10042.009600,-313.812800,0.000000
363.859662,9492.837200,0.000000,0.000000
363.859968,10120.462800,-392.266000,156.906400
363.860274,9885.103200,235.359600,78.453200
363.860579,10042.009600,-235.359600,313.812800
363.860885,10277.369200,78.453200,-235.359600
363.861190,10042.009600,1019.891600,-156.906400
363.861496,9963.556400,0.000000,0.000000
363.861802,10198.916000,313.812800,313.812800
363.862107,10042.009600,-313.812800,0.000000
363.862413,10042.009600,-470.719200,392.266000
363.862718,10120.462800,78.453200,549.172400
363.863024,10591.182000,-156.906400,549.172400
363.863330,9571.290400,392.266000,-392.266000
363.863635,10277.369200,235.359600,-156.906400
363.863941,10042.009600,549.172400,-235.359600
363.864246,9728.196800,78.453200,-313.812800
363.864552,9806.650000,156.906400,0.000000
363.864857,11061.901200,0.000000,313.812800
363.865163,9963.556400,0.000000,470.719200
363.865469,9806.650000,313.812800,313.812800
363.865774,10120.462800,549.172400,156.906400
363.866080,9963.556400,392.266000,-156.906400
363.866385,10277.369200,1098.344800,313.812800
363.866691,9963.556400,470.719200,0.000000
363.866997,9257.477600,235.359600,0.000000
363.867302,10042.009600,78.453200,156.906400
363.867608,10042.009600,549.172400,-1019.891600
363.867913,9100.571200,941.438400,-78.453200
363.868219,10042.009600,549.172400,-392.266000
363.868525,9728.196800,1490.610800,-941.438400
363.868830,9885.103200,0.000000,156.906400
363.869136,10277.369200,-549.172400,313.812800
363.869441,10042.009600,-156.906400,470.719200
363.869747,10120.462800,0.000000,235.359600
363.870053,10198.916000,235.359600,235.359600
363.870358,9649.743600,706.078800,-156.906400
363.870664,9885.103200,156.906400,-313.812800
363.870969,9885.103200,313.812800,78.453200
363.871275,9806.650000,-1098.344800,156.906400
363.871581,10042.009600,156.906400,-78.453200
363.871886,10120.462800,0.000000,0.000000
363.872192,9963.556400,0.000000,78.453200
363.872497,9649.743600,392.266000,0.000000
363.872803,10120.462800,235.359600,-235.359600
363.873109,9728.196800,470.719200,-627.625600
363.873414,9806.650000,0.000000,-627.625600
363.873720,9885.103200,156.906400,-313.812800
363.874025,10120.462800,0.000000,0.000000
363.874331,9806.650000,-470.719200,0.000000
363.874637,10198.916000,0.000000,78.453200
363.874942,10277.369200,0.000000,313.812800
363.875248,10198.916000,235.359600,-235.359600
363.875553,10042.009600,78.453200,-313.812800
363.875859,10042.009600,-470.719200,-156.906400
363.876165,10198.916000,-156.906400,392.266000
363.876470,9963.556400,0.000000,313.812800
363.876776,10120.462800,-706.078800,1176.798000
363.877081,9100.571200,235.359600,-235.359600
363.877387,10983.448000,0.000000,0.000000
363.877693,9728.196800,0.000000,0.000000
363.877998,9414.384000,0.000000,-156.906400
363.878304,10042.009600,-549.172400,156.906400
363.878609,10042.009600,0.000000,156.906400
363.878915,10512.728800,706.078800,235.359600
363.879221,10042.009600,0.000000,0.000000
363.879526,9806.650000,549.172400,-313.812800
363.879832,10042.009600,313.812800,-549.172400
363.880137,9806.650000,0.000000,-392.266000
363.880443,9414.384000,78.453200,156.906400
363.880749,10277.369200,-156.906400,313.812800
363.881054,10355.822400,-235.359600,470.719200
363.881360,9963.556400,78.453200,0.000000
363.881665,10277.369200,0.000000,78.453200
363.881971,9885.103200,0.000000,-156.906400
363.882277,9728.196800,627.625600,0.000000
363.882582,9963.556400,0.000000,-313.812800
363.882888,9728.196800,235.359600,156.906400
363.883193,9963.556400,0.000000,392.266000
363.883499,10669.635200,-313.812800,470.719200
363.883805,9806.650000,-235.359600,78.453200
363.884110,10042.009600,78.453200,-470.719200
363.884416,10042.009600,313.812800,-627.625600
363.884721,9571.290400,0.000000,-784.532000
363.885027,10042.009600,470.719200,-313.812800
363.885333,10120.462800,0.000000,-706.078800
363.885638,9414.384000,-549.172400,0.000000
363.885944,8472.945600,0.000000,0.000000
363.886249,9728.196800,-470.719200,-156.906400
363.886555,10120.462800,-313.812800,0.000000
363.886861,9414.384000,235.359600,-627.625600
363.887166,9571.290400,-392.266000,235.359600
363.887472,10042.009600,0.000000,0.000000
363.887777,10120.462800,0.000000,156.906400
363.888083,10277.369200,0.000000,0.000000
363.888389,10669.635200,549.172400,313.812800
363.888694,10591.182000,-156.906400,0.000000
363.889000,10198.916000,0.000000,313.812800
363.889305,9963.556400,-235.359600,0.000000
363.889611,9963.556400,-549.172400,78.453200
363.889917,10434.275600,-235.359600,235.359600
363.890222,10198.916000,-549.172400,1019.891600
363.890528,9806.650000,156.906400,156.906400
363.890833,10042.009600,-313.812800,706.078800
363.891139,10277.369200,-941.438400,1569.064000
363.891445,10277.369200,-1255.251200,2667.408800
363.891750,10120.462800,-1882.876800,2510.502400
363.892056,10669.635200,-1569.064000,2745.862000
363.892361,10355.822400,-1333.704400,2510.502400
363.892667,10355.822400,-1176.798000,2353.596000
363.892973,10591.182000,-1255.251200,2432.049200
363.893278,10042.009600,-1255.251200,1569.064000
363.893584,9806.650000,-1255.251200,1647.517200
363.893889,9649.743600,-1569.064000,2039.783200
363.894195,9571.290400,-2353.596000,2432.049200
363.894501,10120.462800,-3295.034400,3216.581200
363.894806,10042.009600,-3530.394000,4236.472800
363.895112,10042.009600,-3373.487600,4942.551600
363.895417,10042.009600,-3687.300400,5256.364400
363.895723,10277.369200,-3295.034400,5334.817600
363.896029,10512.728800,-2981.221600,5021.004800
363.896334,11140.354400,-3295.034400,4393.379200
363.896640,9963.556400,-2667.408800,3844.206800
363.896945,10277.369200,-3059.674800,3765.753600
363.897251,10120.462800,-3765.753600,3844.206800
363.897557,9806.650000,-4314.926000,4550.285600
363.897862,9414.384000,-4628.738800,5021.004800
363.898168,9885.103200,-5334.817600,6119.349600
363.898473,10042.009600,-5648.630400,7296.147600
363.898779,10198.916000,-5570.177200,7531.507200
363.899085,10512.728800,-5177.911200,7453.054000
363.899390,11218.807600,-5413.270800,6982.334800
363.899696,10669.635200,-4942.551600,6276.256000
363.900001,9885.103200,-4471.832400,5570.177200
363.900307,10591.182000,-5021.004800,5727.083600
363.900613,10042.009600,-5570.177200,5883.990000
363.900918,9885.103200,-6276.256000,7139.241200
363.901224,10198.916000,-6511.615600,7060.788000
363.901529,10042.009600,-6982.334800,7374.600800
363.901835,9963.556400,-7060.788000,7296.147600
363.902141,10198.916000,-6982.334800,6903.881600
363.902446,10198.916000,-6511.615600,5727.083600
363.902752,10042.009600,-6590.068800,5805.536800
363.903057,10277.369200,-6590.068800,5177.911200
363.903363,9885.103200,-6197.802800,5021.004800
363.903669,10042.009600,-6590.068800,6040.896400
363.903974,11532.620400,-6825.428400,5883.990000
363.904280,11061.901200,-5962.443200,4393.379200
363.904585,9649.743600,-5805.536800,3765.753600
363.904891,9728.196800,-6746.975200,3687.300400
363.905197,9885.103200,-7374.600800,2902.768400
363.905502,9649.743600,-7296.147600,3138.128000
363.905808,9885.103200,-7060.788000,3059.674800
363.906113,9885.103200,-6590.068800,3295.034400
363.906419,9728.196800,-6040.896400,2981.221600
363.906725,10198.916000,-5648.630400,2902.768400
363.907030,9728.196800,-5099.458000,2510.502400
363.907336,9414.384000,-5256.364400,2510.502400
363.907641,9885.103200,-5021.004800,2510.502400
363.907947,9492.837200,-5491.724000,2745.862000
363.908253,10042.009600,-5962.443200,2745.862000
363.908558,9963.556400,-5648.630400,2902.768400
363.908864,9806.650000,-5177.911200,2745.862000
363.909169,9963.556400,-4707.192000,2510.502400
363.909475,9806.650000,-4707.192000,1804.423600
363.909781,9571.290400,-4393.379200,1255.251200
363.910086,9492.837200,-4236.472800,706.078800
363.910392,9885.103200,-4393.379200,862.985200
363.910697,9414.384000,-4079.566400,627.625600
363.911003,9414.384000,-4393.379200,470.719200
363.911309,9885.103200,-4314.926000,784.532000
363.911614,8708.305200,-4942.551600,1176.798000
363.911920,9963.556400,-4864.098400,941.438400
363.912225,10120.462800,-3922.660000,1176.798000
363.912531,10042.009600,-4079.566400,1176.798000
363.912837,10277.369200,-3530.394000,941.438400
363.913142,10277.369200,-2824.315200,470.719200
363.913448,10198.916000,-2902.768400,156.906400
363.913753,10120.462800,-2824.315200,0.000000
363.914059,10120.462800,-2353.596000,0.000000
363.914365,10120.462800,-2588.955600,0.000000
363.914670,10042.009600,-2745.862000,313.812800
363.914976,9963.556400,-3138.128000,0.000000
363.915281,9806.650000,-3530.394000,0.000000
363.915587,9414.384000,-2667.408800,-313.812800
363.915893,9649.743600,-2510.502400,-235.359600
363.916198,9649.743600,-2039.783200,-627.625600
363.916504,9571.290400,-1255.251200,-1176.798000
363.916809,9649.743600,-1176.798000,-1255.251200
363.917115,9963.556400,-1412.157600,-1255.251200
363.917421,9885.103200,-1333.704400,-941.438400
363.917726,9728.196800,-1255.251200,-1412.157600
363.918032,9963.556400,-1490.610800,-1569.064000
363.918337,10198.916000,-1098.344800,-1647.517200
363.918643,10042.009600,-941.438400,-1804.423600
363.918949,10198.916000,-627.625600,-1961.330000
363.919254,10198.916000,-235.359600,-2275.142800
363.919560,10277.369200,-235.359600,-2196.689600
363.919865,10198.916000,-392.266000,-2196.689600
363.920171,10434.275600,-313.812800,-2196.689600
363.920477,10277.369200,0.000000,-2275.142800
363.920782,10591.182000,706.078800,-2353.596000
363.921088,10277.369200,627.625600,-2275.142800
363.921393,10904.994800,941.438400,-2667.408800
363.921699,10591.182000,549.172400,-2745.862000
363.922005,10042.009600,784.532000,-2745.862000
363.922310,9649.743600,549.172400,-2118.236400
363.922616,9806.650000,1490.610800,-1333.704400
363.922921,10591.182000,862.985200,-2118.236400
363.923227,10042.009600,1569.064000,-1333.704400
363.923533,10512.728800,1961.330000,-1647.517200
363.923838,10277.369200,2432.049200,-1647.517200
363.924144,9963.556400,2510.502400,-1647.517200
363.924449,10042.009600,2745.862000,-1569.064000
363.924755,10434.275600,2118.236400,-1333.704400
363.925061,9885.103200,2667.408800,-941.438400
363.925366,9963.556400,3295.034400,-784.532000
363.925672,10591.182000,3687.300400,-392.266000
363.925977,10042.009600,3765.753600,-470.719200
363.926283,9963.556400,4236.472800,-470.719200
363.926588,10277.369200,4314.926000,-706.078800
363.926894,10042.009600,4471.832400,-784.532000
363.927200,9885.103200,4942.551600,-392.266000
363.927505,10042.009600,4864.098400,-470.719200
363.927811,10434.275600,4550.285600,0.000000
363.928116,9885.103200,4628.738800,-235.359600
363.928422,9963.556400,4864.098400,-235.359600
363.928728,9885.103200,5334.817600,-470.719200
363.929033,10042.009600,5256.364400,-470.719200
363.929339,10120.462800,5413.270800,0.000000
363.929644,9806.650000,5177.911200,0.000000
363.929950,9806.650000,4942.551600,0.000000
363.930256,9963.556400,4785.645200,235.359600
363.930561,10277.369200,5256.364400,313.812800
363.930867,9963.556400,5021.004800,313.812800
363.931172,10120.462800,4628.738800,549.172400
363.931478,9806.650000,4236.472800,549.172400
363.931784,10042.009600,4236.472800,627.625600
363.932089,10120.462800,4079.566400,941.438400
363.932395,10120.462800,4314.926000,862.985200
363.932700,9885.103200,3608.847200,706.078800
363.933006,9885.103200,3530.394000,784.532000
363.933312,10042.009600,3295.034400,549.172400
363.933617,10042.009600,3138.128000,784.532000
363.933923,10198.916000,2745.862000,862.985200
363.934228,10277.369200,2824.315200,862.985200
363.934534,10198.916000,2510.502400,549.172400
363.934840,10042.009600,2353.596000,549.172400
363.935145,9885.103200,2196.689600,549.172400
363.935451,10198.916000,1804.423600,470.719200
363.935756,10355.822400,1569.064000,0.000000
363.936062,9963.556400,1725.970400,313.812800
363.936368,9885.103200,1490.610800,392.266000
363.936673,9728.196800,1019.891600,235.359600
363.936979,10355.822400,78.453200,549.172400
363.937284,11061.901200,470.719200,549.172400
363.937590,9806.650000,862.985200,392.266000
363.937896,10042.009600,784.532000,470.719200
363.938201,10748.088400,78.453200,313.812800
363.938507,10277.369200,-470.719200,313.812800
363.938812,10355.822400,-470.719200,706.078800
363.939118,10277.369200,862.985200,-235.359600
363.939424,10042.009600,-235.359600,470.719200
363.939729,10355.822400,-313.812800,0.000000
363.940035,10434.275600,-313.812800,-78.453200
363.940340,10591.182000,-235.359600,392.266000
363.940646,10042.009600,-470.719200,0.000000
363.940952,9963.556400,0.000000,-313.812800
363.941257,10591.182000,-784.532000,-470.719200
363.941563,10042.009600,-1019.891600,-470.719200
363.941868,10042.009600,-1255.251200,-470.719200
363.942174,10120.462800,-1412.157600,-392.266000
363.942480,9963.556400,-862.985200,-549.172400
363.942785,10120.462800,-941.438400,-627.625600
363.943091,10120.462800,-1255.251200,-706.078800
363.943396,10277.369200,-1019.891600,-627.625600
363.943702,10591.182000,-1647.517200,-313.812800
363.944008,10120.462800,-862.985200,-470.719200
363.944313,10042.009600,-1098.344800,-549.172400
363.944619,9885.103200,-1098.344800,-706.078800
363.944924,9963.556400,-1176.798000,-627.625600
363.945230,9806.650000,-941.438400,-1725.970400
363.945536,9728.196800,-1176.798000,-784.532000
363.945841,9806.650000,-1098.344800,-627.625600
363.946147,9649.743600,-1176.798000,-862.985200
363.946452,9963.556400,-1255.251200,-549.172400
363.946758,9885.103200,-1019.891600,-1098.344800
363.947064,9571.290400,-1333.704400,-470.719200
363.947369,9728.196800,-1098.344800,-627.625600
363.947675,9728.196800,-1176.798000,-549.172400
363.947980,9492.837200,-1176.798000,-627.625600
363.948286,9885.103200,-1255.251200,-156.906400
363.948592,9728.196800,-941.438400,0.000000
363.948897,9728.196800,-1255.251200,0.000000
363.949203,9649.743600,-1098.344800,0.000000
363.949508,9728.196800,-941.438400,-313.812800
363.949814,9963.556400,-706.078800,156.906400
363.950120,9649.743600,-1176.798000,0.000000
363.950425,9806.650000,-1176.798000,0.000000
363.950731,9492.837200,-1176.798000,-156.906400
363.951036,9414.384000,-1176.798000,0.000000
363.951342,10591.182000,-862.985200,78.453200
363.951648,9492.837200,-1333.704400,235.359600
363.951953,9257.477600,-1569.064000,-156.906400
363.952259,9963.556400,-1255.251200,0.000000
363.952564,9571.290400,-1255.251200,156.906400
363.952870,9963.556400,-1098.344800,156.906400
363.953176,9806.650000,-1647.517200,-392.266000
363.953481,9414.384000,-1725.970400,0.000000
363.953787,10042.009600,-1569.064000,78.453200
363.954092,9414.384000,-1333.704400,0.000000
363.954398,9963.556400,-1725.970400,235.359600
363.954704,9414.384000,-1019.891600,-235.359600
363.955009,9571.290400,-1333.704400,0.000000
363.955315,9649.743600,-1490.610800,0.000000
363.955620,9806.650000,-1804.423600,0.000000
363.955926,9806.650000,-1412.157600,0.000000
363.956232,9963.556400,-1255.251200,549.172400
363.956537,9963.556400,-1333.704400,78.453200
363.956843,9963.556400,-1412.157600,0.000000
363.957148,9806.650000,-1255.251200,0.000000
363.957454,9414.384000,-1333.704400,-235.359600
363.957760,10042.009600,-1019.891600,78.453200
363.958065,9728.196800,-392.266000,-392.266000
363.958371,9335.930800,-784.532000,78.453200
363.958676,10904.994800,-1333.704400,470.719200
363.958982,9963.556400,-78.453200,-78.453200
363.959288,9885.103200,-392.266000,470.719200
363.959593,9806.650000,-627.625600,392.266000
363.959899,9806.650000,-549.172400,156.906400
363.960204,9806.650000,-470.719200,0.000000
363.960510,9885.103200,-470.719200,0.000000
363.960816,9963.556400,-235.359600,0.000000
363.961121,9963.556400,-235.359600,-392.266000
363.961427,9728.196800,0.000000,0.000000
363.961732,9885.103200,235.359600,0.000000
363.962038,9806.650000,470.719200,0.000000
363.962344,9728.196800,470.719200,78.453200
363.962649,9492.837200,1176.798000,470.719200
363.962955,9963.556400,784.532000,78.453200
363.963260,9806.650000,784.532000,156.906400
363.963566,9963.556400,862.985200,0.000000
363.963872,9649.743600,941.438400,0.000000
363.964177,10042.009600,941.438400,156.906400
363.964483,9885.103200,1255.251200,235.359600
363.964788,9649.743600,1098.344800,0.000000
363.965094,9649.743600,1333.704400,0.000000
363.965400,9806.650000,1569.064000,156.906400
363.965705,9963.556400,1333.704400,0.000000
363.966011,10120.462800,1725.970400,0.000000
363.966316,9649.743600,1725.970400,156.906400
363.966622,9649.743600,1804.423600,0.000000
363.966928,9885.103200,1804.423600,0.000000
363.967233,9806.650000,1725.970400,0.000000
363.967539,10042.009600,1882.876800,-313.812800
363.967844,9728.196800,1490.610800,156.906400
363.968150,9728.196800,1569.064000,0.000000
363.968456,9885.103200,1647.517200,-156.906400
363.968761,9885.103200,1961.330000,-313.812800
363.969067,9571.290400,2196.689600,-235.359600
363.969372,9963.556400,2118.236400,-549.172400
363.969678,9885.103200,1804.423600,-392.266000
363.969984,9885.103200,1647.517200,-313.812800
363.970289,10042.009600,1569.064000,-313.812800
363.970595,9806.650000,1725.970400,156.906400
363.970900,10042.009600,1412.157600,-235.359600
363.971206,9963.556400,1490.610800,-313.812800
363.971512,10120.462800,1333.704400,-235.359600
363.971817,10120.462800,1255.251200,-392.266000
363.972123,9806.650000,1725.970400,-549.172400
363.972428,10355.822400,1490.610800,-313.812800
363.972734,10355.822400,1019.891600,-235.359600
363.973040,10042.009600,1098.344800,-392.266000
363.973345,10355.822400,1098.344800,-549.172400
363.973651,10042.009600,1019.891600,-235.359600
363.973956,10042.009600,706.078800,-313.812800
363.974262,10198.916000,941.438400,-156.906400
363.974568,10512.728800,549.172400,-313.812800
363.974873,10512.728800,313.812800,-235.359600
363.975179,10355.822400,784.532000,156.906400
363.975484,10042.009600,392.266000,0.000000
363.975790,10512.728800,549.172400,-313.812800
363.976096,10277.369200,549.172400,0.000000
363.976401,9492.837200,549.172400,0.000000
363.976707,10120.462800,0.000000,-156.906400
363.977012,10826.541600,549.172400,0.000000
363.977318,9649.743600,156.906400,0.000000
363.977624,10277.369200,235.359600,0.000000
363.977929,10198.916000,470.719200,78.453200
363.978235,10277.369200,470.719200,0.000000
363.978540,10042.009600,0.000000,235.359600
363.978846,10198.916000,470.719200,78.453200
363.979152,10198.916000,470.719200,0.000000
363.979457,10120.462800,313.812800,78.453200
363.979763,10042.009600,313.812800,235.359600
363.980068,10120.462800,156.906400,706.078800
363.980374,10042.009600,235.359600,-156.906400
363.980680,10120.462800,78.453200,156.906400
363.980985,10042.009600,0.000000,235.359600
363.981291,10042.009600,0.000000,0.000000
363.981596,10277.369200,156.906400,470.719200
363.981902,10120.462800,313.812800,78.453200
363.982208,10120.462800,156.906400,156.906400
363.982513,10198.916000,0.000000,0.000000
363.982819,10042.009600,78.453200,0.000000
363.983124,9806.650000,0.000000,156.906400
363.983430,10120.462800,0.000000,0.000000
363.983736,9963.556400,-156.906400,0.000000
363.984041,10042.009600,-470.719200,0.000000
363.984347,9963.556400,-313.812800,78.453200
