##drops=0,overflows=0,time_per_sample=0.000305623,start_range=0.000066,end_range=0.000036
#time,accel_x,accel_y,accel_z
349.273648,9885.103200,392.266000,0.000000
349.273953,10277.369200,4079.566400,156.906400
349.274259,10120.462800,3608.847200,156.906400
349.274565,10042.009600,3216.581200,392.266000
349.274870,10120.462800,2902.768400,313.812800
349.275176,9963.556400,3216.581200,549.172400
349.275482,10042.009600,2824.315200,78.453200
349.275787,9885.103200,2902.768400,0.000000
349.276093,10042.009600,3530.394000,0.000000
349.276398,10198.916000,3295.034400,-156.906400
349.276704,10042.009600,3844.206800,0.000000
349.277010,10748.088400,4001.113200,78.453200
349.277315,10277.369200,4001.113200,0.000000
349.277621,10277.369200,4079.566400,313.812800
349.277927,10042.009600,3844.206800,78.453200
349.278232,9963.556400,3844.206800,0.000000
349.278538,10042.009600,3216.581200,78.453200
349.278843,10042.009600,3216.581200,235.359600
349.279149,9806.650000,3530.394000,235.359600
349.279455,9963.556400,3608.847200,-156.906400
349.279760,10277.369200,4001.113200,0.000000
349.280066,10042.009600,3922.660000,0.000000
349.280372,10512.728800,3451.940800,0.000000
349.280677,10120.462800,3608.847200,313.812800
349.280983,10042.009600,3373.487600,549.172400
349.281288,10120.462800,3530.394000,0.000000
349.281594,9963.556400,3844.206800,156.906400
349.281900,10042.009600,3922.660000,0.000000
349.282205,10042.009600,3922.660000,0.000000
349.282511,9963.556400,4001.113200,78.453200
349.282817,9806.650000,4001.113200,235.359600
349.283122,10120.462800,3922.660000,549.172400
349.283428,9649.743600,4550.285600,706.078800
349.283733,10042.009600,3608.847200,235.359600
349.284039,10042.009600,3765.753600,78.453200
349.284345,10042.009600,4236.472800,0.000000
349.284650,9885.103200,4079.566400,0.000000
349.284956,10355.822400,4314.926000,0.000000
349.285261,9100.571200,4314.926000,0.000000
349.285567,9885.103200,2824.315200,-235.359600
349.285873,10120.462800,3216.581200,0.000000
349.286178,9571.290400,3295.034400,78.453200
349.286484,10042.009600,3295.034400,392.266000
349.286790,10355.822400,3687.300400,392.266000
349.287095,10277.369200,3295.034400,235.359600
349.287401,10355.822400,3295.034400,313.812800
349.287706,10120.462800,3608.847200,156.906400
349.288012,10042.009600,3216.581200,0.000000
349.288318,10277.369200,3373.487600,-313.812800
349.288623,10042.009600,2902.768400,0.000000
349.288929,9728.196800,2902.768400,0.000000
349.289235,9414.384000,2667.408800,0.000000
349.289540,10042.009600,2510.502400,0.000000
349.289846,9885.103200,2824.315200,-235.359600
349.290151,10120.462800,2981.221600,0.000000
349.290457,10277.369200,2824.315200,156.906400
349.290763,10198.916000,2510.502400,235.359600
349.291068,10512.728800,2745.862000,470.719200
349.291374,10669.635200,2667.408800,470.719200
349.291680,10355.822400,2432.049200,784.532000
349.291985,10277.369200,2432.049200,235.359600
349.292291,10198.916000,1882.876800,156.906400
349.292596,9963.556400,1804.423600,78.453200
349.292902,10042.009600,2353.596000,0.000000
349.293208,10042.009600,1647.517200,0.000000
349.293513,10042.009600,1412.157600,0.000000
349.293819,10042.009600,2353.596000,-235.359600
349.294125,10120.462800,2118.236400,-313.812800
349.294430,10277.369200,2196.689600,235.359600
349.294736,10042.009600,1804.423600,313.812800
349.295041,10355.822400,1569.064000,235.359600
349.295347,10120.462800,1882.876800,392.266000
349.295653,10042.009600,1569.064000,313.812800
349.295958,10120.462800,2039.783200,392.266000
349.296264,10355.822400,1961.330000,1019.891600
349.296570,10042.009600,1098.344800,235.359600
349.296875,10120.462800,1647.517200,0.000000
349.297181,9963.556400,1412.157600,0.000000
349.297486,9885.103200,1412.157600,-470.719200
349.297792,9649.743600,1255.251200,0.000000
349.298098,9649.743600,1176.798000,-392.266000
349.298403,9649.743600,1176.798000,-313.812800
349.298709,9257.477600,784.532000,-156.906400
349.299014,9649.743600,706.078800,235.359600
349.299320,9492.837200,1019.891600,470.719200
349.299626,9885.103200,862.985200,627.625600
349.299931,9963.556400,1647.517200,549.172400
349.300237,10042.009600,1961.330000,392.266000
349.300543,9963.556400,1490.610800,78.453200
349.300848,9885.103200,1647.517200,0.000000
349.301154,10277.369200,941.438400,-235.359600
349.301459,10042.009600,706.078800,-156.906400
349.301765,9806.650000,1098.344800,-470.719200
349.302071,9257.477600,0.000000,-156.906400
349.302376,9963.556400,78.453200,0.000000
349.302682,10120.462800,392.266000,235.359600
349.302988,9806.650000,392.266000,1490.610800
349.303293,11532.620400,862.985200,1176.798000
349.303599,10198.916000,2039.783200,862.985200
349.303904,10434.275600,1490.610800,313.812800
349.304210,10042.009600,1961.330000,784.532000
349.304516,10277.369200,1098.344800,0.000000
349.304821,9885.103200,862.985200,0.000000
349.305127,10042.009600,549.172400,-470.719200
349.305433,9728.196800,313.812800,-1019.891600
349.305738,8943.664800,0.000000,0.000000
349.306044,9728.196800,0.000000,-470.719200
349.306349,9806.650000,0.000000,156.906400
349.306655,9728.196800,0.000000,627.625600
349.306961,9885.103200,235.359600,1019.891600
349.307266,9963.556400,784.532000,313.812800
349.307572,10434.275600,862.985200,470.719200
349.307878,9963.556400,1255.251200,235.359600
349.308183,10042.009600,1098.344800,-392.266000
349.308489,9963.556400,1176.798000,-549.172400
349.308794,9649.743600,156.906400,-392.266000
349.309100,9728.196800,-941.438400,-862.985200
349.309406,9649.743600,-784.532000,-156.906400
349.309711,9806.650000,-784.532000,78.453200
349.310017,10042.009600,-627.625600,549.172400
349.310323,10042.009600,156.906400,1333.704400
349.310628,10042.009600,1176.798000,1098.344800
349.310934,10591.182000,1333.704400,784.532000
349.311239,10277.369200,1098.344800,470.719200
349.311545,10120.462800,549.172400,-156.906400
349.311851,9885.103200,313.812800,-549.172400
349.312156,9649.743600,-862.985200,-862.985200
349.312462,9728.196800,-862.985200,-784.532000
349.312768,9806.650000,-862.985200,-549.172400
349.313073,9492.837200,-1019.891600,0.000000
349.313379,9806.650000,-235.359600,0.000000
349.313684,9257.477600,235.359600,313.812800
349.313990,10042.009600,706.078800,313.812800
349.314296,10355.822400,1098.344800,470.719200
349.314601,10120.462800,1098.344800,392.266000
349.314907,10198.916000,1019.891600,78.453200
349.315212,10042.009600,862.985200,-392.266000
349.315518,9492.837200,-235.359600,-235.359600
349.315824,9571.290400,-549.172400,-313.812800
349.316129,10042.009600,-941.438400,-156.906400
349.316435,9649.743600,-706.078800,-235.359600
349.316741,10198.916000,-706.078800,235.359600
349.317046,10042.009600,78.453200,0.000000
349.317352,9885.103200,549.172400,235.359600
349.317657,9649.743600,549.172400,156.906400
349.317963,9963.556400,1098.344800,0.000000
349.318269,9806.650000,470.719200,0.000000
349.318574,9335.930800,0.000000,-627.625600
349.318880,9806.650000,-156.906400,-470.719200
349.319186,9649.743600,-235.359600,-627.625600
349.319491,9963.556400,-156.906400,0.000000
349.319797,10042.009600,-313.812800,235.359600
349.320102,9885.103200,78.453200,0.000000
349.320408,10434.275600,706.078800,470.719200
349.320714,10120.462800,313.812800,78.453200
349.321019,8943.664800,392.266000,-313.812800
349.321325,10355.822400,0.000000,-392.266000
349.321631,9963.556400,-784.532000,-941.438400
349.321936,8472.945600,-627.625600,-78.453200
349.322242,9963.556400,-1490.610800,-392.266000
349.322547,9963.556400,-784.532000,-313.812800
349.322853,9963.556400,-470.719200,862.985200
349.323159,9963.556400,-627.625600,235.359600
349.323464,10042.009600,235.359600,0.000000
349.323770,10042.009600,627.625600,0.000000
349.324076,10120.462800,470.719200,0.000000
349.324381,9885.103200,549.172400,0.000000
349.324687,10120.462800,0.000000,0.000000
349.324992,10042.009600,-549.172400,0.000000
349.325298,9571.290400,-1412.157600,0.000000
349.325604,10042.009600,-1647.517200,0.000000
349.325909,10120.462800,-156.906400,-392.266000
349.326215,9649.743600,-627.625600,-313.812800
349.326521,10120.462800,156.906400,-156.906400
349.326826,10198.916000,313.812800,0.000000
349.327132,10198.916000,0.000000,0.000000
349.327437,9806.650000,235.359600,0.000000
349.327743,10120.462800,0.000000,-235.359600
349.328049,10120.462800,-235.359600,-235.359600
349.328354,10120.462800,-784.532000,-470.719200
349.328660,9885.103200,-941.438400,-392.266000
349.328966,10042.009600,-392.266000,-313.812800
349.329271,10198.916000,-706.078800,0.000000
349.329577,10042.009600,-1176.798000,1019.891600
349.329882,10198.916000,156.906400,313.812800
349.330188,10042.009600,313.812800,392.266000
349.330494,10198.916000,392.266000,0.000000
349.330799,9885.103200,470.719200,0.000000
349.331105,9963.556400,0.000000,-235.359600
349.331410,9728.196800,-627.625600,-627.625600
349.331716,9806.650000,-1019.891600,-470.719200
349.332022,9806.650000,-1019.891600,-313.812800
349.332327,9885.103200,-941.438400,0.000000
349.332633,9963.556400,-1019.891600,78.453200
349.332939,9806.650000,0.000000,78.453200
349.333244,9963.556400,235.359600,156.906400
349.333550,10434.275600,627.625600,313.812800
349.333855,10042.009600,392.266000,156.906400
349.334161,10042.009600,627.625600,-313.812800
349.334467,10120.462800,392.266000,-784.532000
349.334772,10120.462800,-156.906400,-235.359600
349.335078,9885.103200,-549.172400,-235.359600
349.335384,9806.650000,-706.078800,0.000000
349.335689,9963.556400,-627.625600,0.000000
349.335995,9492.837200,-549.172400,156.906400
349.336300,10042.009600,78.453200,0.000000
349.336606,10198.916000,313.812800,0.000000
349.336912,10120.462800,549.172400,-156.906400
349.337217,10277.369200,941.438400,-392.266000
349.337523,10042.009600,392.266000,-627.625600
349.337829,10198.916000,470.719200,-470.719200
349.338134,10355.822400,0.000000,-470.719200
349.338440,10042.009600,0.000000,0.000000
349.338745,10042.009600,-627.625600,0.000000
349.339051,10983.448000,-1333.704400,1019.891600
349.339357,10042.009600,156.906400,706.078800
349.339662,10512.728800,392.266000,0.000000
349.339968,10042.009600,1019.891600,235.359600
349.340274,9885.103200,0.000000,78.453200
349.340579,10434.275600,0.000000,0.000000
349.340885,9728.196800,0.000000,0.000000
349.341190,9806.650000,0.000000,-392.266000
349.341496,9885.103200,0.000000,-392.266000
349.341802,9806.650000,-392.266000,0.000000
349.342107,10042.009600,-784.532000,78.453200
349.342413,9728.196800,-1098.344800,313.812800
349.342719,9728.196800,-156.906400,313.812800
349.343024,10198.916000,156.906400,235.359600
349.343330,9885.103200,0.000000,0.000000
349.343635,9963.556400,470.719200,-235.359600
349.343941,10198.916000,392.266000,-235.359600
349.344247,10042.009600,-235.359600,-313.812800
349.344552,10042.009600,0.000000,-313.812800
349.344858,10434.275600,-392.266000,-235.359600
349.345164,10042.009600,-313.812800,0.000000
349.345469,10042.009600,0.000000,0.000000
349.345775,10198.916000,0.000000,470.719200
349.346080,10120.462800,0.000000,313.812800
349.346386,10355.822400,0.000000,235.359600
349.346692,10277.369200,392.266000,156.906400
349.346997,10120.462800,-78.453200,0.000000
349.347303,10669.635200,-392.266000,-392.266000
349.347608,10198.916000,-313.812800,-156.906400
349.347914,10120.462800,-235.359600,-470.719200
349.348220,9963.556400,-156.906400,-156.906400
349.348525,9963.556400,-392.266000,78.453200
349.348831,9963.556400,-470.719200,470.719200
349.349137,10198.916000,0.000000,627.625600
349.349442,10042.009600,78.453200,706.078800
349.349748,9492.837200,0.000000,392.266000
349.350053,9885.103200,78.453200,0.000000
349.350359,10512.728800,78.453200,78.453200
349.350665,9649.743600,-313.812800,-549.172400
349.350970,9649.743600,-235.359600,0.000000
349.351276,10042.009600,-313.812800,-235.359600
349.351582,9963.556400,-313.812800,0.000000
349.351887,9571.290400,-235.359600,-313.812800
349.352193,9963.556400,0.000000,392.266000
349.352498,9728.196800,0.000000,156.906400
349.352804,9728.196800,-392.266000,313.812800
349.353110,9728.196800,-235.359600,78.453200
349.353415,9728.196800,0.000000,313.812800
349.353721,10042.009600,0.000000,-313.812800
349.354027,9806.650000,-313.812800,-392.266000
349.354332,10120.462800,-470.719200,-392.266000
349.354638,9963.556400,-862.985200,-627.625600
349.354943,9885.103200,-627.625600,0.000000
349.355249,9728.196800,-235.359600,-392.266000
349.355555,10042.009600,0.000000,313.812800
349.355860,10042.009600,0.000000,235.359600
349.356166,9806.650000,0.000000,313.812800
349.356472,9885.103200,313.812800,0.000000
349.356777,10042.009600,313.812800,-627.625600
349.357083,9963.556400,-1098.344800,-784.532000
349.357388,10355.822400,-78.453200,-1019.891600
349.357694,9335.930800,-549.172400,784.532000
349.358000,11218.807600,-1412.157600,0.000000
349.358305,10042.009600,-78.453200,-235.359600
349.358611,9885.103200,0.000000,549.172400
349.358917,10748.088400,-313.812800,313.812800
349.359222,10277.369200,0.000000,313.812800
349.359528,9963.556400,78.453200,0.000000
349.359833,9885.103200,392.266000,-1176.798000
349.360139,9728.196800,-470.719200,-549.172400
349.360445,10355.822400,-627.625600,-313.812800
349.360750,9414.384000,-706.078800,-392.266000
349.361056,10120.462800,-549.172400,-156.906400
349.361362,10434.275600,-627.625600,235.359600
349.361667,9963.556400,-470.719200,235.359600
349.361973,10042.009600,313.812800,235.359600
349.362278,10042.009600,627.625600,313.812800
349.362584,9806.650000,627.625600,235.359600
349.362890,9728.196800,549.172400,392.266000
349.363195,9963.556400,156.906400,0.000000
349.363501,10042.009600,-549.172400,0.000000
349.363806,9885.103200,-784.532000,-156.906400
349.364112,9806.650000,-470.719200,-392.266000
349.364418,10198.916000,-313.812800,0.000000
349.364723,10120.462800,-392.266000,313.812800
349.365029,9806.650000,0.000000,0.000000
349.365335,10042.009600,627.625600,78.453200
349.365640,9728.196800,549.172400,0.000000
349.365946,10042.009600,941.438400,0.000000
349.366251,10198.916000,1176.798000,78.453200
349.366557,10042.009600,549.172400,-235.359600
349.366863,10355.822400,0.000000,0.000000
349.367168,9963.556400,0.000000,-235.359600
349.367474,10591.182000,-313.812800,-392.266000
349.367780,9963.556400,-627.625600,-549.172400
349.368085,9728.196800,-235.359600,-156.906400
349.368391,9885.103200,313.812800,0.000000
349.368696,9963.556400,470.719200,0.000000
349.369002,9649.743600,313.812800,78.453200
349.369308,10591.182000,627.625600,156.906400
349.369613,9414.384000,470.719200,0.000000
349.369919,9806.650000,156.906400,-235.359600
349.370225,9885.103200,0.000000,-313.812800
349.370530,9728.196800,-156.906400,-313.812800
349.370836,10042.009600,156.906400,0.000000
349.371141,9649.743600,313.812800,-627.625600
349.371447,9885.103200,313.812800,0.000000
349.371753,10042.009600,470.719200,156.906400
349.372058,9963.556400,549.172400,0.000000
349.372364,9728.196800,156.906400,0.000000
349.372670,10120.462800,-235.359600,-392.266000
349.372975,10277.369200,0.000000,-156.906400
349.373281,9728.196800,-235.359600,-235.359600
349.373586,9885.103200,0.000000,-235.359600
349.373892,10042.009600,-235.359600,-156.906400
349.374198,9728.196800,0.000000,78.453200
349.374503,9806.650000,235.359600,0.000000
349.374809,10042.009600,470.719200,156.906400
349.375115,10512.728800,627.625600,78.453200
349.375420,10042.009600,235.359600,0.000000
349.375726,10042.009600,1333.704400,0.000000
349.376031,9963.556400,0.000000,-549.172400
349.376337,10198.916000,0.000000,0.000000
349.376643,9100.571200,392.266000,-235.359600
349.376948,9728.196800,0.000000,0.000000
349.377254,10277.369200,78.453200,0.000000
349.377559,9963.556400,470.719200,78.453200
349.377865,9963.556400,392.266000,156.906400
349.378171,10277.369200,862.985200,313.812800
349.378476,10198.916000,784.532000,470.719200
349.378782,10042.009600,1176.798000,235.359600
349.379088,10277.369200,1333.704400,0.000000
349.379393,10042.009600,1098.344800,-313.812800
349.379699,9571.290400,784.532000,-470.719200
349.380004,10042.009600,627.625600,-470.719200
349.380310,10042.009600,470.719200,-313.812800
349.380616,10198.916000,-470.719200,78.453200
349.380921,9649.743600,0.000000,0.000000
349.381227,9885.103200,549.172400,0.000000
349.381533,9806.650000,941.438400,0.000000
349.381838,9885.103200,1255.251200,0.000000
349.382144,10120.462800,1098.344800,-313.812800
349.382449,10042.009600,862.985200,0.000000
349.382755,9963.556400,392.266000,0.000000
349.383061,9806.650000,156.906400,0.000000
349.383366,9963.556400,313.812800,0.000000
349.383672,10042.009600,156.906400,0.000000
349.383978,9728.196800,156.906400,0.000000
349.384283,10042.009600,549.172400,0.000000
349.384589,10120.462800,784.532000,78.453200
349.384894,9806.650000,1019.891600,0.000000
349.385200,10120.462800,784.532000,235.359600
349.385506,10512.728800,1098.344800,0.000000
349.385811,9963.556400,627.625600,0.000000
349.386117,10042.009600,235.359600,0.000000
349.386423,9963.556400,627.625600,-313.812800
349.386728,10042.009600,78.453200,-313.812800
349.387034,10355.822400,313.812800,0.000000
349.387339,10042.009600,313.812800,0.000000
349.387645,10277.369200,156.906400,0.000000
349.387951,10198.916000,0.000000,235.359600
349.388256,9806.650000,470.719200,235.359600
349.388562,9885.103200,313.812800,392.266000
349.388868,9728.196800,706.078800,313.812800
349.389173,9885.103200,-313.812800,78.453200
349.389479,9806.650000,0.000000,0.000000
349.389784,9571.290400,-706.078800,-235.359600
349.390090,9963.556400,-549.172400,0.000000
349.390396,9963.556400,0.000000,0.000000
349.390701,10277.369200,0.000000,78.453200
349.391007,9963.556400,-156.906400,0.000000
349.391313,10042.009600,-1412.157600,78.453200
349.391618,9806.650000,78.453200,156.906400
349.391924,10042.009600,392.266000,0.000000
349.392229,10042.009600,78.453200,78.453200
349.392535,10120.462800,0.000000,235.359600
349.392841,10277.369200,-313.812800,235.359600
349.393146,9728.196800,549.172400,-470.719200
349.393452,10826.541600,-313.812800,862.985200
349.393757,11218.807600,-706.078800,0.000000
349.394063,10591.182000,1569.064000,-78.453200
349.394369,10042.009600,-392.266000,0.000000
349.394674,10042.009600,156.906400,313.812800
349.394980,9728.196800,0.000000,-392.266000
349.395286,9571.290400,-392.266000,-235.359600
349.395591,9414.384000,-862.985200,0.000000
349.395897,9963.556400,-1019.891600,0.000000
349.396202,9963.556400,0.000000,0.000000
349.396508,10042.009600,313.812800,78.453200
349.396814,9885.103200,-156.906400,-156.906400
349.397119,10042.009600,156.906400,0.000000
349.397425,10042.009600,0.000000,313.812800
349.397731,9492.837200,-235.359600,0.000000
349.398036,9885.103200,78.453200,470.719200
349.398342,10277.369200,0.000000,235.359600
349.398647,9492.837200,-313.812800,78.453200
349.398953,9728.196800,-313.812800,-156.906400
349.399259,10042.009600,-313.812800,0.000000
349.399564,10042.009600,-156.906400,0.000000
349.399870,10042.009600,-392.266000,0.000000
349.400176,10042.009600,-235.359600,0.000000
349.400481,10042.009600,156.906400,0.000000
349.400787,10120.462800,78.453200,156.906400
349.401092,9885.103200,-156.906400,78.453200
349.401398,9885.103200,156.906400,-156.906400
349.401704,9885.103200,-627.625600,78.453200
349.402009,9728.196800,-784.532000,0.000000
349.402315,9885.103200,-392.266000,0.000000
349.402621,10120.462800,-313.812800,-235.359600
349.402926,9649.743600,0.000000,-784.532000
349.403232,9806.650000,-313.812800,0.000000
349.403537,10042.009600,-235.359600,78.453200
349.403843,10355.822400,235.359600,313.812800
349.404149,9885.103200,0.000000,313.812800
349.404454,10512.728800,392.266000,549.172400
349.404760,10198.916000,0.000000,313.812800
349.405066,9649.743600,-784.532000,-313.812800
349.405371,9963.556400,-549.172400,-392.266000
349.405677,9885.103200,-784.532000,-392.266000
349.405982,9649.743600,-470.719200,-549.172400
349.406288,10120.462800,-706.078800,-156.906400
349.406594,9728.196800,-784.532000,0.000000
349.406899,9885.103200,-549.172400,156.906400
349.407205,10434.275600,-235.359600,392.266000
349.407511,10042.009600,-706.078800,235.359600
349.407816,10042.009600,0.000000,313.812800
349.408122,9963.556400,-392.266000,0.000000
349.408427,9963.556400,-862.985200,-156.906400
349.408733,10042.009600,-470.719200,-313.812800
349.409039,9963.556400,-549.172400,0.000000
349.409344,10198.916000,0.000000,0.000000
349.409650,10120.462800,-313.812800,-235.359600
349.409955,10042.009600,-313.812800,78.453200
349.410261,10355.822400,313.812800,0.000000
349.410567,10434.275600,0.000000,0.000000
349.410872,10120.462800,392.266000,0.000000
349.411178,10591.182000,235.359600,0.000000
349.411484,9963.556400,-862.985200,-235.359600
349.411789,9806.650000,-1255.251200,-392.266000
349.412095,9963.556400,-941.438400,0.000000
349.412400,9806.650000,-706.078800,549.172400
349.412706,9963.556400,-1019.891600,-78.453200
349.413012,9728.196800,0.000000,235.359600
349.413317,10042.009600,235.359600,78.453200
349.413623,10120.462800,0.000000,0.000000
349.413929,10198.916000,156.906400,235.359600
349.414234,9806.650000,313.812800,-156.906400
349.414540,9649.743600,0.000000,0.000000
349.414845,9885.103200,-627.625600,78.453200
349.415151,9728.196800,-784.532000,156.906400
349.415457,9885.103200,0.000000,156.906400
349.415762,10277.369200,0.000000,78.453200
349.416068,10042.009600,78.453200,0.000000
349.416374,10277.369200,627.625600,156.906400
349.416679,10355.822400,627.625600,0.000000
349.416985,10198.916000,313.812800,-549.172400
349.417290,10355.822400,470.719200,235.359600
349.417596,10042.009600,-235.359600,0.000000
349.417902,9806.650000,-549.172400,0.000000
349.418207,9885.103200,-392.266000,0.000000
349.418513,10042.009600,-313.812800,0.000000
349.418819,9885.103200,0.000000,0.000000
349.419124,10120.462800,235.359600,-470.719200
349.419430,10042.009600,313.812800,-235.359600
349.419735,10355.822400,784.532000,0.000000
349.420041,10198.916000,470.719200,-156.906400
349.420347,10042.009600,862.985200,470.719200
349.420652,9885.103200,392.266000,0.000000
349.420958,10042.009600,0.000000,-235.359600
349.421264,10042.009600,-549.172400,-235.359600
349.421569,10042.009600,-470.719200,-235.359600
349.421875,9728.196800,0.000000,156.906400
349.422180,10120.462800,-549.172400,0.000000
349.422486,10120.462800,235.359600,78.453200
349.422792,10277.369200,862.985200,235.359600
349.423097,10512.728800,1098.344800,156.906400
349.423403,10120.462800,784.532000,0.000000
349.423709,10591.182000,156.906400,-392.266000
349.424014,10120.462800,235.359600,-313.812800
349.424320,9728.196800,0.000000,0.000000
349.424625,9806.650000,-392.266000,0.000000
349.424931,9885.103200,0.000000,78.453200
349.425237,10120.462800,-549.172400,392.266000
349.425542,9885.103200,0.000000,0.000000
349.425848,9963.556400,313.812800,156.906400
349.426153,10277.369200,706.078800,0.000000
349.426459,10198.916000,784.532000,0.000000
349.426765,10826.541600,549.172400,156.906400
349.427070,9963.556400,862.985200,235.359600
349.427376,10042.009600,235.359600,156.906400
349.427682,9806.650000,0.000000,0.000000
349.427987,9649.743600,-313.812800,0.000000
349.428293,10042.009600,-235.359600,-313.812800
349.428598,9963.556400,0.000000,78.453200
349.428904,9806.650000,313.812800,0.000000
349.429210,9649.743600,549.172400,1176.798000
349.429515,10512.728800,862.985200,0.000000
349.429821,10042.009600,627.625600,156.906400
349.430127,9963.556400,235.359600,0.000000
349.430432,10042.009600,235.359600,0.000000
349.430738,9885.103200,0.000000,-78.453200
349.431043,9963.556400,-313.812800,0.000000
349.431349,10120.462800,-1255.251200,-862.985200
349.431655,9728.196800,-392.266000,0.000000
349.431960,10120.462800,0.000000,-235.359600
349.432266,10042.009600,549.172400,0.000000
349.432572,10120.462800,470.719200,0.000000
349.432877,10591.182000,-313.812800,0.000000
349.433183,10042.009600,156.906400,0.000000
349.433488,10120.462800,-156.906400,-156.906400
349.433794,10042.009600,0.000000,0.000000
349.434100,9728.196800,-392.266000,78.453200
349.434405,9885.103200,-941.438400,78.453200
349.434711,9806.650000,0.000000,156.906400
349.435017,9885.103200,0.000000,0.000000
349.435322,10042.009600,0.000000,0.000000
349.435628,10042.009600,235.359600,-156.906400
349.435933,10512.728800,235.359600,0.000000
349.436239,10355.822400,78.453200,235.359600
349.436545,9963.556400,-392.266000,-235.359600
349.436850,10120.462800,-470.719200,-313.812800
349.437156,9885.103200,-784.532000,0.000000
349.437462,9885.103200,-627.625600,0.000000
349.437767,10277.369200,-470.719200,392.266000
349.438073,10120.462800,-313.812800,78.453200
349.438378,10042.009600,78.453200,156.906400
349.438684,9728.196800,313.812800,78.453200
349.438990,10042.009600,549.172400,0.000000
349.439295,10512.728800,549.172400,0.000000
349.439601,9885.103200,0.000000,0.000000
349.439906,9649.743600,78.453200,-313.812800
349.440212,9963.556400,-862.985200,-470.719200
349.440518,9885.103200,-1098.344800,-313.812800
349.440823,9414.384000,-706.078800,-313.812800
349.441129,10434.275600,-627.625600,-392.266000
349.441435,9806.650000,-235.359600,78.453200
349.441740,9963.556400,0.000000,0.000000
349.442046,10198.916000,784.532000,0.000000
349.442351,10198.916000,706.078800,0.000000
349.442657,10042.009600,235.359600,862.985200
349.442963,10120.462800,78.453200,156.906400
349.443268,10042.009600,-470.719200,0.000000
349.443574,9963.556400,-627.625600,0.000000
349.443880,9806.650000,-627.625600,-156.906400
349.444185,9728.196800,78.453200,-235.359600
349.444491,10042.009600,-549.172400,0.000000
349.444796,10042.009600,-470.719200,78.453200
349.445102,9806.650000,0.000000,0.000000
349.445408,10042.009600,470.719200,0.000000
349.445713,10042.009600,156.906400,627.625600
349.446019,9885.103200,235.359600,78.453200
349.446325,10120.462800,392.266000,0.000000
349.446630,9806.650000,-313.812800,-392.266000
349.446936,9728.196800,-313.812800,-313.812800
349.447241,9100.571200,-78.453200,-784.532000
349.447547,9885.103200,-313.812800,0.000000
349.447853,10042.009600,0.000000,0.000000
349.448158,9022.118000,0.000000,549.172400
349.448464,9885.103200,1019.891600,235.359600
349.448770,10120.462800,1176.798000,0.000000
349.449075,9963.556400,156.906400,78.453200
349.449381,10277.369200,392.266000,0.000000
349.449686,10042.009600,78.453200,0.000000
349.449992,9414.384000,-470.719200,0.000000
349.450298,9885.103200,-1176.798000,0.000000
349.450603,10042.009600,-470.719200,78.453200
349.450909,9492.837200,-784.532000,0.000000
349.451215,9885.103200,-470.719200,0.000000
349.451520,9728.196800,235.359600,78.453200
349.451826,10198.916000,392.266000,0.000000
349.452131,10120.462800,627.625600,-392.266000
349.452437,10042.009600,627.625600,0.000000
349.452743,10120.462800,392.266000,78.453200
349.453048,9885.103200,0.000000,78.453200
349.453354,10042.009600,-392.266000,0.000000
349.453660,10042.009600,-313.812800,0.000000
349.453965,9963.556400,0.000000,0.000000
349.454271,10042.009600,0.000000,0.000000
349.454576,10120.462800,-235.359600,0.000000
349.454882,10277.369200,549.172400,0.000000
349.455188,10198.916000,1098.344800,313.812800
349.455493,10120.462800,235.359600,-156.906400
349.455799,9963.556400,313.812800,-313.812800
349.456104,9963.556400,0.000000,-313.812800
349.456410,9649.743600,0.000000,-313.812800
349.456716,10042.009600,78.453200,0.000000
349.457021,9728.196800,0.000000,78.453200
349.457327,9885.103200,313.812800,313.812800
349.457633,9963.556400,156.906400,313.812800
349.457938,10120.462800,549.172400,470.719200
349.458244,10198.916000,1019.891600,784.532000
349.458549,10042.009600,313.812800,313.812800
349.458855,10042.009600,549.172400,0.000000
349.459161,9963.556400,470.719200,-235.359600
349.459466,9728.196800,0.000000,-392.266000
349.459772,9806.650000,0.000000,-235.359600
349.460078,9571.290400,0.000000,0.000000
349.460383,9728.196800,78.453200,0.000000
349.460689,10042.009600,0.000000,235.359600
349.460994,9963.556400,549.172400,392.266000
349.461300,10042.009600,1098.344800,235.359600
349.461606,10042.009600,1882.876800,0.000000
349.461911,10042.009600,1019.891600,0.000000
349.462217,9885.103200,862.985200,-392.266000
349.462523,9885.103200,156.906400,-313.812800
349.462828,10042.009600,-156.906400,-470.719200
349.463134,9885.103200,0.000000,706.078800
349.463439,9963.556400,78.453200,313.812800
349.463745,9885.103200,0.000000,470.719200
349.464051,10042.009600,78.453200,235.359600
349.464356,10120.462800,1098.344800,313.812800
349.464662,9885.103200,1569.064000,392.266000
349.464968,10042.009600,1176.798000,156.906400
349.465273,11061.901200,549.172400,313.812800
349.465579,10512.728800,627.625600,-235.359600
349.465884,9728.196800,-235.359600,0.000000
349.466190,10042.009600,-235.359600,156.906400
349.466496,9649.743600,-313.812800,-313.812800
349.466801,9963.556400,-392.266000,0.000000
349.467107,9100.571200,156.906400,-235.359600
349.467413,9414.384000,235.359600,0.000000
349.467718,10042.009600,1412.157600,-941.438400
349.468024,10434.275600,941.438400,0.000000
349.468329,10120.462800,1019.891600,0.000000
349.468635,10512.728800,784.532000,78.453200
349.468941,10198.916000,470.719200,78.453200
349.469246,10277.369200,-313.812800,941.438400
349.469552,10277.369200,-235.359600,-156.906400
349.469858,9963.556400,0.000000,-156.906400
349.470163,10042.009600,78.453200,78.453200
349.470469,9963.556400,0.000000,0.000000
349.470774,9728.196800,706.078800,78.453200
349.471080,9806.650000,784.532000,0.000000
349.471386,10042.009600,549.172400,0.000000
349.471691,9885.103200,549.172400,0.000000
349.471997,10042.009600,470.719200,0.000000
349.472302,10042.009600,0.000000,-235.359600
349.472608,10042.009600,156.906400,313.812800
349.472914,9728.196800,-235.359600,-392.266000
349.473219,9806.650000,-1333.704400,78.453200
349.473525,9963.556400,235.359600,0.000000
349.473831,9806.650000,627.625600,235.359600
349.474136,10277.369200,235.359600,627.625600
349.474442,10042.009600,941.438400,470.719200
349.474747,10355.822400,0.000000,78.453200
349.475053,9885.103200,862.985200,-235.359600
349.475359,9963.556400,470.719200,-235.359600
349.475664,10042.009600,-156.906400,-392.266000
349.475970,9963.556400,-470.719200,-235.359600
349.476276,9571.290400,-941.438400,0.000000
349.476581,9806.650000,-156.906400,78.453200
349.476887,9414.384000,0.000000,0.000000
349.477192,10042.009600,470.719200,0.000000
349.477498,10120.462800,549.172400,78.453200
349.477804,10277.369200,313.812800,78.453200
349.478109,9885.103200,470.719200,0.000000
349.478415,10277.369200,549.172400,0.000000
349.478721,10198.916000,-235.359600,156.906400
349.479026,10198.916000,-470.719200,-235.359600
349.479332,9728.196800,-470.719200,0.000000
349.479637,9885.103200,-627.625600,0.000000
349.479943,10277.369200,-313.812800,0.000000
349.480249,10042.009600,0.000000,235.359600
349.480554,10198.916000,549.172400,549.172400
349.480860,10277.369200,470.719200,235.359600
349.481166,10042.009600,392.266000,0.000000
349.481471,10042.009600,549.172400,-156.906400
349.481777,9728.196800,0.000000,-784.532000
349.482082,10042.009600,-784.532000,-627.625600
349.482388,9571.290400,-862.985200,-392.266000
349.482694,9885.103200,-392.266000,0.000000
349.482999,9885.103200,-235.359600,235.359600
349.483305,10042.009600,0.000000,156.906400
349.483611,9963.556400,0.000000,313.812800
349.483916,10669.635200,470.719200,784.532000
349.484222,11218.807600,0.000000,0.000000
349.484527,10120.462800,706.078800,0.000000
349.484833,9806.650000,549.172400,313.812800
349.485139,10591.182000,-862.985200,313.812800
349.485444,10042.009600,-235.359600,-313.812800
349.485750,9806.650000,-1176.798000,-313.812800
349.486056,9728.196800,-784.532000,0.000000
349.486361,9885.103200,-470.719200,0.000000
349.486667,9728.196800,78.453200,235.359600
349.486972,10277.369200,313.812800,941.438400
349.487278,10198.916000,784.532000,470.719200
349.487584,9885.103200,470.719200,156.906400
349.487889,10042.009600,549.172400,0.000000
349.488195,10120.462800,-156.906400,0.000000
349.488500,9728.196800,-862.985200,0.000000
349.488806,9571.290400,-706.078800,-470.719200
349.489112,9649.743600,-1098.344800,-235.359600
349.489417,9728.196800,-941.438400,-313.812800
349.489723,9885.103200,-470.719200,78.453200
349.490029,10120.462800,0.000000,392.266000
349.490334,10042.009600,235.359600,470.719200
349.490640,10277.369200,0.000000,235.359600
349.490945,10120.462800,706.078800,0.000000
349.491251,10512.728800,235.359600,-392.266000
349.491557,9963.556400,-392.266000,-1490.610800
349.491862,10042.009600,-549.172400,-549.172400
349.492168,9728.196800,-1019.891600,-313.812800
349.492474,9963.556400,-1255.251200,0.000000
349.492779,9963.556400,-706.078800,0.000000
349.493085,10120.462800,-549.172400,392.266000
349.493390,9806.650000,0.000000,78.453200
349.493696,10277.369200,470.719200,78.453200
349.494002,10355.822400,78.453200,235.359600
349.494307,10198.916000,313.812800,0.000000
349.494613,10434.275600,-313.812800,0.000000
349.494919,9414.384000,-470.719200,-392.266000
349.495224,9414.384000,-627.625600,-313.812800
349.495530,9963.556400,-941.438400,-313.812800
349.495835,9414.384000,-1098.344800,-313.812800
349.496141,9414.384000,-1255.251200,0.000000
349.496447,9806.650000,-1019.891600,235.359600
349.496752,10042.009600,-313.812800,156.906400
349.497058,9806.650000,0.000000,0.000000
349.497364,9963.556400,392.266000,0.000000
349.497669,9806.650000,235.359600,-156.906400
349.497975,10120.462800,-470.719200,-627.625600
349.498280,10042.009600,-862.985200,-235.359600
349.498586,9963.556400,-941.438400,0.000000
349.498892,9571.290400,-1019.891600,0.000000
349.499197,10120.462800,-1019.891600,156.906400
349.499503,10042.009600,-784.532000,235.359600
349.499809,10355.822400,0.000000,313.812800
349.500114,10434.275600,392.266000,392.266000
349.500420,10355.822400,706.078800,235.359600
349.500725,10591.182000,1176.798000,-156.906400
349.501031,10434.275600,470.719200,-313.812800
349.501337,10277.369200,-313.812800,-392.266000
349.501642,10591.182000,0.000000,-549.172400
349.501948,9885.103200,-1176.798000,-784.532000
349.502253,10042.009600,-1882.876800,-235.359600
349.502559,9963.556400,-784.532000,78.453200
349.502865,10042.009600,-78.453200,0.000000
349.503170,10277.369200,0.000000,-78.453200
349.503476,9963.556400,392.266000,0.000000
349.503782,9963.556400,862.985200,0.000000
349.504087,10120.462800,784.532000,0.000000
349.504393,10198.916000,-156.906400,-784.532000
349.504698,9806.650000,0.000000,0.000000
349.505004,10042.009600,0.000000,0.000000
349.505310,9728.196800,-549.172400,78.453200
349.505615,9885.103200,-235.359600,156.906400
349.505921,9885.103200,235.359600,549.172400
349.506227,9806.650000,549.172400,156.906400
349.506532,10042.009600,784.532000,235.359600
349.506838,10042.009600,1098.344800,0.000000
349.507143,9885.103200,941.438400,0.000000
349.507449,10355.822400,78.453200,0.000000
349.507755,10042.009600,0.000000,0.000000
349.508060,9963.556400,0.000000,0.000000
349.508366,9885.103200,0.000000,0.000000
349.508672,9963.556400,-313.812800,-156.906400
349.508977,9806.650000,-313.812800,0.000000
349.509283,9728.196800,235.359600,156.906400
349.509588,10042.009600,470.719200,235.359600
349.509894,10198.916000,706.078800,0.000000
349.510200,10042.009600,1412.157600,156.906400
349.510505,10042.009600,784.532000,235.359600
349.510811,9963.556400,156.906400,235.359600
349.511117,9728.196800,235.359600,0.000000
349.511422,10042.009600,0.000000,0.000000
349.511728,9728.196800,-313.812800,-235.359600
349.512033,9885.103200,-549.172400,235.359600
349.512339,9728.196800,0.000000,-235.359600
349.512645,10042.009600,313.812800,156.906400
349.512950,10042.009600,-156.906400,156.906400
349.513256,10198.916000,156.906400,156.906400
349.513562,10277.369200,1019.891600,0.000000
349.513867,9492.837200,0.000000,-549.172400
349.514173,10591.182000,549.172400,-313.812800
349.514478,10042.009600,0.000000,-470.719200
349.514784,10042.009600,-235.359600,-156.906400
349.515090,10120.462800,-156.906400,0.000000
349.515395,10042.009600,-941.438400,-156.906400
349.515701,9885.103200,-156.906400,0.000000
349.516007,10120.462800,-235.359600,313.812800
349.516312,9963.556400,-392.266000,78.453200
349.516618,10120.462800,1098.344800,0.000000
349.516923,10669.635200,706.078800,-235.359600
349.517229,10042.009600,235.359600,-235.359600
349.517535,10042.009600,-235.359600,-627.625600
349.517840,9885.103200,-627.625600,-392.266000
349.518146,9885.103200,-470.719200,0.000000
349.518451,9806.650000,-706.078800,-156.906400
349.518757,9806.650000,-862.985200,-156.906400
349.519063,9806.650000,0.000000,235.359600
349.519368,10042.009600,-78.453200,-313.812800
349.519674,9728.196800,235.359600,0.000000
349.519980,10277.369200,470.719200,156.906400
349.520285,10591.182000,1804.423600,-313.812800
349.520591,9806.650000,156.906400,0.000000
349.520896,10512.728800,-78.453200,0.000000
349.521202,10042.009600,0.000000,0.000000
349.521508,10277.369200,156.906400,0.000000
349.521813,10042.009600,0.000000,0.000000
349.522119,10042.009600,156.906400,235.359600
349.522425,10277.369200,156.906400,235.359600
349.522730,10042.009600,313.812800,392.266000
349.523036,10042.009600,549.172400,156.906400
349.523341,10042.009600,313.812800,0.000000
349.523647,9885.103200,78.453200,-235.359600
349.523953,9885.103200,470.719200,-235.359600
349.524258,10277.369200,627.625600,-313.812800
349.524564,10042.009600,313.812800,-313.812800
349.524870,9571.290400,0.000000,-313.812800
349.525175,9806.650000,-313.812800,0.000000
349.525481,10042.009600,0.000000,78.453200
349.525786,10120.462800,78.453200,313.812800
349.526092,9885.103200,549.172400,156.906400
349.526398,9728.196800,392.266000,313.812800
349.526703,9963.556400,0.000000,0.000000
349.527009,10042.009600,0.000000,-313.812800
349.527315,9492.837200,0.000000,-549.172400
349.527620,9492.837200,-313.812800,-392.266000
349.527926,10277.369200,0.000000,-470.719200
349.528231,9885.103200,0.000000,-313.812800
349.528537,9728.196800,706.078800,0.000000
349.528843,9963.556400,156.906400,470.719200
349.529148,10277.369200,-235.359600,235.359600
349.529454,10198.916000,706.078800,156.906400
349.529760,9806.650000,78.453200,0.000000
349.530065,10434.275600,392.266000,-1255.251200
349.530371,10198.916000,156.906400,-392.266000
349.530676,9885.103200,0.000000,-392.266000
349.530982,9806.650000,0.000000,-549.172400
349.531288,10198.916000,-392.266000,-470.719200
349.531593,10042.009600,-235.359600,-156.906400
349.531899,10120.462800,235.359600,0.000000
349.532205,10042.009600,-235.359600,313.812800
349.532510,10042.009600,0.000000,313.812800
349.532816,10277.369200,-235.359600,78.453200
349.533121,10042.009600,470.719200,0.000000
349.533427,10042.009600,392.266000,-235.359600
349.533733,10042.009600,235.359600,0.000000
349.534038,9963.556400,0.000000,-392.266000
349.534344,9649.743600,-313.812800,0.000000
349.534649,10198.916000,-235.359600,0.000000
349.534955,9335.930800,0.000000,0.000000
349.535261,9806.650000,-392.266000,313.812800
349.535566,10042.009600,-313.812800,313.812800
349.535872,9728.196800,0.000000,78.453200
349.536178,10120.462800,78.453200,78.453200
349.536483,9806.650000,549.172400,549.172400
349.536789,9963.556400,235.359600,-235.359600
349.537094,10042.009600,0.000000,-235.359600
349.537400,10042.009600,-235.359600,0.000000
349.537706,10042.009600,-78.453200,-235.359600
349.538011,10042.009600,156.906400,235.359600
349.538317,10198.916000,-313.812800,0.000000
349.538623,8943.664800,-470.719200,470.719200
349.538928,9728.196800,-1412.157600,470.719200
349.539234,10042.009600,78.453200,-392.266000
349.539539,8708.305200,78.453200,0.000000
349.539845,9728.196800,313.812800,-156.906400
349.540151,9728.196800,235.359600,-313.812800
349.540456,10042.009600,0.000000,0.000000
349.540762,10120.462800,0.000000,0.000000
349.541068,9963.556400,156.906400,549.172400
349.541373,10042.009600,235.359600,706.078800
349.541679,10120.462800,0.000000,470.719200
349.541984,10042.009600,78.453200,392.266000
349.542290,10120.462800,784.532000,78.453200
349.542596,9806.650000,392.266000,0.000000
349.542901,9963.556400,549.172400,-706.078800
349.543207,9806.650000,0.000000,-549.172400
349.543513,9963.556400,-313.812800,0.000000
349.543818,10042.009600,0.000000,78.453200
349.544124,10042.009600,-313.812800,0.000000
349.544429,10355.822400,0.000000,-470.719200
349.544735,10198.916000,313.812800,0.000000
349.545041,10042.009600,313.812800,0.000000
349.545346,9806.650000,627.625600,0.000000
349.545652,10042.009600,549.172400,0.000000
349.545958,9492.837200,313.812800,156.906400
349.546263,10120.462800,0.000000,0.000000
349.546569,9885.103200,0.000000,-235.359600
349.546874,9963.556400,156.906400,-392.266000
349.547180,10120.462800,78.453200,-392.266000
349.547486,9806.650000,313.812800,0.000000
349.547791,9806.650000,78.453200,156.906400
349.548097,10042.009600,0.000000,0.000000
349.548403,9885.103200,0.000000,78.453200
349.548708,10042.009600,313.812800,0.000000
349.549014,9885.103200,0.000000,-235.359600
349.549319,9885.103200,0.000000,0.000000
349.549625,9885.103200,235.359600,78.453200
349.549931,10120.462800,392.266000,0.000000
349.550236,10198.916000,156.906400,0.000000
349.550542,10042.009600,235.359600,470.719200
349.550847,10042.009600,0.000000,0.000000
349.551153,10042.009600,156.906400,0.000000
349.551459,9649.743600,0.000000,78.453200
349.551764,9571.290400,235.359600,0.000000
349.552070,9806.650000,78.453200,0.000000
349.552376,10042.009600,0.000000,156.906400
349.552681,9885.103200,78.453200,0.000000
349.552987,9963.556400,78.453200,0.000000
349.553292,10042.009600,78.453200,78.453200
349.553598,10198.916000,0.000000,0.000000
349.553904,10120.462800,392.266000,0.000000
349.554209,9806.650000,627.625600,0.000000
349.554515,10042.009600,0.000000,156.906400
349.554821,9963.556400,0.000000,0.000000
349.555126,10042.009600,0.000000,0.000000
349.555432,10120.462800,0.000000,862.985200
349.555737,11061.901200,-235.359600,313.812800
349.556043,9963.556400,0.000000,156.906400
349.556349,9963.556400,313.812800,0.000000
349.556654,10042.009600,235.359600,78.453200
349.556960,9728.196800,0.000000,78.453200
349.557266,9728.196800,-156.906400,0.000000
349.557571,9414.384000,156.906400,0.000000
349.557877,10120.462800,-706.078800,0.000000
349.558182,9806.650000,0.000000,78.453200
349.558488,9963.556400,0.000000,313.812800
349.558794,9885.103200,156.906400,-156.906400
349.559099,9571.290400,0.000000,-313.812800
349.559405,9963.556400,0.000000,0.000000
349.559711,9571.290400,-941.438400,0.000000
349.560016,10277.369200,-2039.783200,392.266000
349.560322,10120.462800,0.000000,235.359600
349.560627,9414.384000,-235.359600,235.359600
349.560933,10434.275600,235.359600,156.906400
349.561239,10120.462800,313.812800,0.000000
349.561544,9963.556400,0.000000,0.000000
349.561850,9649.743600,392.266000,-313.812800
349.562156,9963.556400,0.000000,-549.172400
349.562461,10042.009600,0.000000,-392.266000
349.562767,10198.916000,-313.812800,-235.359600
349.563072,9571.290400,-1019.891600,313.812800
349.563378,9728.196800,-941.438400,78.453200
349.563684,9649.743600,-706.078800,0.000000
349.563989,10042.009600,-627.625600,0.000000
349.564295,10198.916000,0.000000,0.000000
349.564600,10277.369200,470.719200,235.359600
349.564906,10120.462800,627.625600,-235.359600
349.565212,10277.369200,0.000000,-392.266000
349.565517,10277.369200,-706.078800,-706.078800
349.565823,10042.009600,-1176.798000,-470.719200
349.566129,10120.462800,-1412.157600,-470.719200
349.566434,10591.182000,-1019.891600,-549.172400
349.566740,10277.369200,-392.266000,0.000000
349.567045,10198.916000,0.000000,0.000000
349.567351,10198.916000,78.453200,0.000000
349.567657,10277.369200,78.453200,0.000000
349.567962,9806.650000,706.078800,156.906400
349.568268,9885.103200,-313.812800,156.906400
349.568574,10042.009600,-549.172400,78.453200
349.568879,9728.196800,-549.172400,78.453200
349.569185,9649.743600,-392.266000,78.453200
349.569490,9963.556400,78.453200,627.625600
349.569796,9571.290400,0.000000,313.812800
349.570102,9492.837200,0.000000,78.453200
349.570407,9885.103200,0.000000,78.453200
349.570713,10120.462800,78.453200,235.359600
349.571019,9885.103200,627.625600,156.906400
349.571324,9885.103200,1019.891600,0.000000
349.571630,10042.009600,0.000000,0.000000
349.571935,9963.556400,78.453200,0.000000
349.572241,9414.384000,0.000000,0.000000
349.572547,9728.196800,0.000000,0.000000
349.572852,10042.009600,-627.625600,0.000000
349.573158,9728.196800,0.000000,0.000000
349.573464,9963.556400,313.812800,0.000000
349.573769,10198.916000,0.000000,-78.453200
349.574075,9963.556400,313.812800,0.000000
349.574380,9414.384000,392.266000,-78.453200
349.574686,9963.556400,0.000000,235.359600
349.574992,10042.009600,549.172400,0.000000
349.575297,10042.009600,392.266000,1176.798000
349.575603,11061.901200,-706.078800,470.719200
349.575909,9963.556400,-549.172400,156.906400
349.576214,10120.462800,-235.359600,706.078800
349.576520,10198.916000,235.359600,392.266000
349.576825,10042.009600,235.359600,235.359600
349.577131,10198.916000,156.906400,78.453200
349.577437,9885.103200,156.906400,0.000000
349.577742,10042.009600,0.000000,0.000000
349.578048,9806.650000,-392.266000,-470.719200
349.578354,9492.837200,-784.532000,-470.719200
349.578659,9571.290400,-706.078800,0.000000
349.578965,9885.103200,-1019.891600,0.000000
349.579270,10198.916000,-1098.344800,392.266000
349.579576,10042.009600,-235.359600,-313.812800
349.579882,9806.650000,0.000000,0.000000
349.580187,10277.369200,156.906400,0.000000
349.580493,10042.009600,235.359600,0.000000
349.580798,10198.916000,0.000000,0.000000
349.581104,10512.728800,-627.625600,0.000000
349.581410,10355.822400,-1098.344800,0.000000
349.581715,10120.462800,-627.625600,-235.359600
349.582021,10198.916000,-392.266000,78.453200
349.582327,10355.822400,-549.172400,0.000000
349.582632,9728.196800,78.453200,549.172400
349.582938,10120.462800,0.000000,0.000000
349.583243,10355.822400,470.719200,0.000000
349.583549,10042.009600,235.359600,-313.812800
349.583855,10042.009600,313.812800,-156.906400
349.584160,10198.916000,313.812800,78.453200
349.584466,10120.462800,-470.719200,78.453200
349.584772,9806.650000,0.000000,0.000000
349.585077,9963.556400,0.000000,0.000000
349.585383,9728.196800,0.000000,0.000000
349.585688,10042.009600,-941.438400,78.453200
349.585994,9414.384000,156.906400,0.000000
349.586300,9728.196800,470.719200,0.000000
349.586605,9492.837200,549.172400,156.906400
349.586911,9963.556400,627.625600,313.812800
349.587217,10042.009600,1647.517200,235.359600
349.587522,9728.196800,313.812800,156.906400
349.587828,9806.650000,470.719200,235.359600
349.588133,9806.650000,392.266000,78.453200
349.588439,9728.196800,156.906400,-156.906400
349.588745,9963.556400,0.000000,156.906400
349.589050,9963.556400,706.078800,0.000000
349.589356,9806.650000,627.625600,0.000000
349.589662,10042.009600,627.625600,0.000000
349.589967,10198.916000,627.625600,0.000000
349.590273,10042.009600,784.532000,0.000000
349.590578,10198.916000,1176.798000,235.359600
349.590884,9963.556400,0.000000,0.000000
349.591190,10042.009600,78.453200,78.453200
349.591495,9963.556400,470.719200,78.453200
349.591801,9963.556400,862.985200,78.453200
349.592107,10434.275600,941.438400,470.719200
349.592412,10042.009600,784.532000,0.000000
349.592718,10120.462800,0.000000,-156.906400
349.593023,10198.916000,470.719200,0.000000
349.593329,9806.650000,313.812800,-156.906400
349.593635,9806.650000,0.000000,-1019.891600
349.593940,9728.196800,0.000000,78.453200
349.594246,9806.650000,0.000000,78.453200
349.594552,9649.743600,78.453200,156.906400
349.594857,9885.103200,0.000000,78.453200
349.595163,10042.009600,0.000000,156.906400
349.595468,10042.009600,392.266000,156.906400
349.595774,9963.556400,862.985200,0.000000
349.596080,10198.916000,549.172400,0.000000
349.596385,10120.462800,0.000000,-235.359600
349.596691,10042.009600,313.812800,0.000000
349.596996,9728.196800,0.000000,706.078800
349.597302,10042.009600,-156.906400,0.000000
349.597608,9728.196800,-549.172400,156.906400
349.597913,9963.556400,-313.812800,78.453200
349.598219,10120.462800,-235.359600,78.453200
349.598525,10042.009600,0.000000,941.438400
349.598830,10277.369200,392.266000,78.453200
349.599136,10355.822400,549.172400,78.453200
349.599441,10120.462800,470.719200,-156.906400
349.599747,10120.462800,470.719200,-392.266000
349.600053,10198.916000,0.000000,-549.172400
349.600358,9571.290400,-392.266000,-784.532000
349.600664,9649.743600,-1412.157600,-392.266000
349.600970,10042.009600,-313.812800,-627.625600
349.601275,9414.384000,-392.266000,0.000000
349.601581,10277.369200,0.000000,470.719200
349.601886,10198.916000,78.453200,156.906400
349.602192,10120.462800,235.359600,156.906400
349.602498,10277.369200,1019.891600,0.000000
349.602803,10198.916000,470.719200,0.000000
349.603109,10277.369200,706.078800,-313.812800
349.603415,9963.556400,-470.719200,0.000000
349.603720,9885.103200,-706.078800,-313.812800
349.604026,9806.650000,78.453200,-156.906400
349.604331,9728.196800,-313.812800,-313.812800
349.604637,10120.462800,-470.719200,-235.359600
349.604943,10042.009600,-470.719200,156.906400
349.605248,9728.196800,313.812800,78.453200
349.605554,10042.009600,1176.798000,235.359600
349.605860,9885.103200,862.985200,0.000000
349.606165,10120.462800,549.172400,0.000000
349.606471,9728.196800,941.438400,156.906400
349.606776,9806.650000,78.453200,-235.359600
349.607082,9571.290400,0.000000,-235.359600
349.607388,9806.650000,-156.906400,-313.812800
349.607693,9806.650000,-235.359600,-313.812800
349.607999,10042.009600,-392.266000,313.812800
349.608305,9414.384000,0.000000,78.453200
349.608610,9963.556400,549.172400,235.359600
349.608916,10042.009600,706.078800,392.266000
349.609221,10042.009600,470.719200,156.906400
349.609527,10042.009600,1019.891600,313.812800
349.609833,10042.009600,470.719200,0.000000
349.610138,9100.571200,-78.453200,-313.812800
349.610444,9963.556400,-1098.344800,0.000000
349.610750,9728.196800,-78.453200,0.000000
349.611055,9571.290400,-549.172400,1490.610800
349.611361,10198.916000,-470.719200,313.812800
349.611666,10042.009600,706.078800,0.000000
349.611972,10355.822400,313.812800,0.000000
349.612278,10120.462800,470.719200,-156.906400
349.612583,10277.369200,470.719200,549.172400
349.612889,10042.009600,549.172400,235.359600
349.613194,10198.916000,-235.359600,0.000000
349.613500,10042.009600,-706.078800,0.000000
349.613806,9963.556400,-784.532000,0.000000
349.614111,9571.290400,-862.985200,0.000000
349.614417,10277.369200,-706.078800,0.000000
349.614723,9963.556400,-313.812800,0.000000
349.615028,9963.556400,78.453200,-313.812800
349.615334,10042.009600,156.906400,0.000000
349.615639,10042.009600,313.812800,-156.906400
349.615945,10120.462800,470.719200,627.625600
349.616251,10277.369200,0.000000,78.453200
349.616556,10042.009600,-392.266000,78.453200
349.616862,9885.103200,-392.266000,0.000000
349.617168,9885.103200,-627.625600,0.000000
349.617473,9728.196800,-784.532000,0.000000
349.617779,10042.009600,-156.906400,0.000000
349.618084,10042.009600,0.000000,0.000000
349.618390,10120.462800,156.906400,0.000000
349.618696,10042.009600,156.906400,0.000000
349.619001,10042.009600,470.719200,0.000000
349.619307,10277.369200,78.453200,0.000000
349.619613,10042.009600,0.000000,-313.812800
349.619918,10042.009600,0.000000,0.000000
349.620224,9963.556400,-235.359600,0.000000
349.620529,9571.290400,-313.812800,-313.812800
349.620835,10120.462800,78.453200,235.359600
349.621141,9492.837200,0.000000,-235.359600
349.621446,9963.556400,392.266000,0.000000
349.621752,9963.556400,0.000000,0.000000
349.622058,9885.103200,0.000000,0.000000
349.622363,9649.743600,627.625600,78.453200
349.622669,10042.009600,0.000000,-313.812800
349.622974,9492.837200,0.000000,-313.812800
349.623280,9806.650000,-392.266000,-235.359600
349.623586,9963.556400,-549.172400,0.000000
349.623891,9885.103200,0.000000,78.453200
349.624197,9806.650000,0.000000,235.359600
349.624503,9963.556400,235.359600,470.719200
349.624808,10042.009600,235.359600,156.906400
349.625114,9963.556400,156.906400,0.000000
349.625419,10042.009600,941.438400,-235.359600
349.625725,10120.462800,470.719200,-235.359600
349.626031,9885.103200,-392.266000,-235.359600
349.626336,10198.916000,0.000000,0.000000
349.626642,9963.556400,-549.172400,0.000000
349.626947,9963.556400,-392.266000,0.000000
349.627253,10198.916000,-313.812800,706.078800
349.627559,9728.196800,-156.906400,0.000000
349.627864,9885.103200,78.453200,0.000000
349.628170,10042.009600,156.906400,313.812800
349.628476,10120.462800,0.000000,78.453200
349.628781,10591.182000,470.719200,0.000000
349.629087,9100.571200,235.359600,-235.359600
349.629392,9806.650000,-470.719200,-313.812800
349.629698,9885.103200,-235.359600,0.000000
349.630004,9728.196800,-392.266000,0.000000
349.630309,10434.275600,-941.438400,0.000000
349.630615,9728.196800,-156.906400,78.453200
349.630921,9885.103200,78.453200,0.000000
349.631226,10042.009600,392.266000,235.359600
349.631532,10120.462800,313.812800,235.359600
349.631837,10512.728800,706.078800,-156.906400
349.632143,10042.009600,549.172400,0.000000
349.632449,10198.916000,0.000000,0.000000
349.632754,9963.556400,0.000000,0.000000
349.633060,9885.103200,-313.812800,0.000000
349.633366,9963.556400,0.000000,235.359600
349.633671,9728.196800,-784.532000,-156.906400
349.633977,9728.196800,-235.359600,235.359600
349.634282,9728.196800,235.359600,470.719200
349.634588,10042.009600,313.812800,78.453200
349.634894,10198.916000,784.532000,0.000000
349.635199,10120.462800,549.172400,-941.438400
349.635505,10042.009600,156.906400,-392.266000
349.635811,10120.462800,0.000000,-235.359600
349.636116,9885.103200,-235.359600,0.000000
349.636422,10042.009600,0.000000,156.906400
349.636727,10120.462800,-706.078800,235.359600
349.637033,9728.196800,0.000000,235.359600
349.637339,9806.650000,627.625600,78.453200
349.637644,10042.009600,627.625600,0.000000
349.637950,10042.009600,470.719200,-156.906400
349.638256,9806.650000,156.906400,627.625600
349.638561,9806.650000,0.000000,-313.812800
349.638867,10042.009600,-392.266000,-235.359600
349.639172,9571.290400,-392.266000,-156.906400
349.639478,9885.103200,-627.625600,-156.906400
349.639784,10042.009600,-862.985200,0.000000
349.640089,9885.103200,-549.172400,0.000000
349.640395,9963.556400,78.453200,156.906400
349.640701,10120.462800,0.000000,235.359600
349.641006,10042.009600,1176.798000,0.000000
349.641312,10277.369200,313.812800,78.453200
349.641617,10355.822400,549.172400,0.000000
349.641923,10198.916000,941.438400,0.000000
349.642229,10277.369200,0.000000,-156.906400
349.642534,10120.462800,0.000000,0.000000
349.642840,10198.916000,-313.812800,-156.906400
349.643145,10120.462800,0.000000,235.359600
349.643451,10042.009600,0.000000,0.000000
349.643757,10277.369200,-156.906400,0.000000
349.644062,10042.009600,392.266000,0.000000
349.644368,9728.196800,313.812800,235.359600
349.644674,10512.728800,313.812800,0.000000
349.644979,10042.009600,0.000000,-156.906400
349.645285,9649.743600,-392.266000,-156.906400
349.645590,9885.103200,-313.812800,78.453200
349.645896,9649.743600,0.000000,235.359600
349.646202,9963.556400,-627.625600,-392.266000
349.646507,9571.290400,-78.453200,0.000000
349.646813,9414.384000,-392.266000,1176.798000
349.647119,10904.994800,-156.906400,549.172400
349.647424,10277.369200,549.172400,235.359600
349.647730,10042.009600,549.172400,0.000000
349.648035,10120.462800,392.266000,-235.359600
349.648341,10355.822400,156.906400,-235.359600
349.648647,10042.009600,0.000000,-313.812800
349.648952,9885.103200,-313.812800,0.000000
349.649258,10042.009600,0.000000,-156.906400
349.649564,10198.916000,-313.812800,-313.812800
349.649869,9963.556400,-392.266000,0.000000
349.650175,10198.916000,156.906400,235.359600
349.650480,10355.822400,0.000000,156.906400
349.650786,10120.462800,313.812800,78.453200
349.651092,10826.541600,1098.344800,-470.719200
349.651397,10277.369200,313.812800,0.000000
349.651703,10198.916000,0.000000,0.000000
349.652009,10355.822400,-156.906400,0.000000
349.652314,9885.103200,-549.172400,-235.359600
349.652620,9728.196800,0.000000,0.000000
349.652925,10042.009600,-156.906400,-313.812800
349.653231,9728.196800,0.000000,0.000000
349.653537,9806.650000,235.359600,0.000000
349.653842,9885.103200,78.453200,0.000000
349.654148,9728.196800,392.266000,156.906400
349.654454,10042.009600,235.359600,-862.985200
349.654759,9885.103200,0.000000,-313.812800
349.655065,9571.290400,-470.719200,0.000000
349.655370,9728.196800,-470.719200,-313.812800
349.655676,9728.196800,-313.812800,0.000000
349.655982,10042.009600,-549.172400,-313.812800
349.656287,10042.009600,0.000000,0.000000
349.656593,10042.009600,0.000000,313.812800
349.656899,9728.196800,156.906400,313.812800
349.657204,10355.822400,78.453200,78.453200
349.657510,10277.369200,0.000000,78.453200
349.657815,10120.462800,0.000000,0.000000
349.658121,10042.009600,0.000000,-313.812800
349.658427,10198.916000,-78.453200,0.000000
349.658732,10277.369200,-627.625600,-156.906400
349.659038,10042.009600,-470.719200,-235.359600
349.659343,9885.103200,-470.719200,0.000000
349.659649,9885.103200,-156.906400,0.000000
349.659955,10198.916000,0.000000,0.000000
349.660260,9885.103200,0.000000,78.453200
349.660566,10355.822400,549.172400,392.266000
349.660872,9728.196800,78.453200,-313.812800
349.661177,10042.009600,-470.719200,-392.266000
349.661483,9963.556400,-313.812800,-313.812800
349.661788,9728.196800,-470.719200,-235.359600
349.662094,9885.103200,78.453200,0.000000
349.662400,10042.009600,-549.172400,156.906400
349.662705,9728.196800,-235.359600,78.453200
349.663011,9571.290400,0.000000,0.000000
349.663317,9649.743600,235.359600,156.906400
349.663622,9885.103200,156.906400,0.000000
349.663928,9963.556400,0.000000,0.000000
349.664233,9963.556400,0.000000,-78.453200
349.664539,10591.182000,0.000000,0.000000
349.664845,8786.758400,-78.453200,-549.172400
349.665150,9728.196800,0.000000,-156.906400
349.665456,9963.556400,0.000000,-313.812800
349.665762,9806.650000,-156.906400,78.453200
349.666067,9728.196800,0.000000,78.453200
349.666373,10042.009600,156.906400,156.906400
349.666678,10042.009600,78.453200,0.000000
349.666984,10198.916000,784.532000,313.812800
349.667290,10120.462800,862.985200,78.453200
349.667595,9963.556400,156.906400,0.000000
349.667901,9963.556400,0.000000,0.000000
349.668207,9885.103200,156.906400,-235.359600
349.668512,9492.837200,0.000000,0.000000
349.668818,10277.369200,-313.812800,0.000000
349.669123,9728.196800,0.000000,313.812800
349.669429,9414.384000,0.000000,392.266000
349.669735,10277.369200,470.719200,392.266000
349.670040,9806.650000,862.985200,235.359600
349.670346,9571.290400,862.985200,0.000000
349.670652,10042.009600,862.985200,0.000000
349.670957,10042.009600,78.453200,-235.359600
349.671263,9649.743600,0.000000,-313.812800
349.671568,10120.462800,-627.625600,-706.078800
349.671874,9649.743600,-235.359600,-156.906400
349.672180,9885.103200,-549.172400,0.000000
349.672485,9728.196800,-549.172400,78.453200
349.672791,9806.650000,0.000000,235.359600
349.673097,10198.916000,78.453200,78.453200
349.673402,10042.009600,784.532000,235.359600
349.673708,9963.556400,862.985200,0.000000
349.674013,10120.462800,313.812800,0.000000
349.674319,9963.556400,78.453200,0.000000
349.674625,9728.196800,0.000000,-470.719200
349.674930,10355.822400,-235.359600,-392.266000
349.675236,9806.650000,-706.078800,-549.172400
349.675541,9963.556400,-784.532000,-313.812800
349.675847,9885.103200,-235.359600,156.906400
349.676153,10434.275600,0.000000,313.812800
349.676458,10277.369200,-235.359600,313.812800
349.676764,10277.369200,862.985200,156.906400
349.677070,10434.275600,549.172400,0.000000
349.677375,10120.462800,313.812800,0.000000
349.677681,9649.743600,78.453200,-392.266000
349.677986,9022.118000,-392.266000,-549.172400
349.678292,9414.384000,-862.985200,-470.719200
349.678598,9649.743600,-1176.798000,-392.266000
349.678903,9492.837200,-627.625600,-313.812800
349.679209,9728.196800,0.000000,156.906400
349.679515,10042.009600,0.000000,627.625600
349.679820,9728.196800,627.625600,78.453200
349.680126,10198.916000,1019.891600,78.453200
349.680431,10120.462800,627.625600,0.000000
349.680737,10355.822400,392.266000,0.000000
349.681043,10277.369200,-392.266000,-235.359600
349.681348,10355.822400,0.000000,0.000000
349.681654,10198.916000,0.000000,0.000000
349.681960,10042.009600,0.000000,0.000000
349.682265,10198.916000,862.985200,-862.985200
349.682571,9806.650000,156.906400,1176.798000
349.682876,11454.167200,-235.359600,313.812800
349.683182,10042.009600,1490.610800,-78.453200
349.683488,9885.103200,470.719200,78.453200
349.683793,10591.182000,627.625600,0.000000
349.684099,9963.556400,156.906400,0.000000
349.684405,10120.462800,156.906400,0.000000
349.684710,10042.009600,235.359600,156.906400
349.685016,9728.196800,-392.266000,0.000000
349.685321,9492.837200,313.812800,0.000000
349.685627,9963.556400,0.000000,235.359600
349.685933,9728.196800,941.438400,1255.251200
349.686238,9414.384000,706.078800,78.453200
349.686544,9963.556400,0.000000,78.453200
349.686850,9728.196800,470.719200,78.453200
349.687155,9571.290400,156.906400,78.453200
349.687461,10434.275600,156.906400,235.359600
349.687766,10042.009600,0.000000,0.000000
349.688072,9728.196800,-392.266000,-156.906400
349.688378,10042.009600,-392.266000,0.000000
349.688683,9571.290400,392.266000,0.000000
349.688989,9649.743600,-156.906400,156.906400
349.689295,9885.103200,78.453200,156.906400
349.689600,10355.822400,313.812800,78.453200
349.689906,9963.556400,0.000000,156.906400
349.690211,10120.462800,0.000000,0.000000
349.690517,10669.635200,0.000000,-156.906400
349.690823,10042.009600,0.000000,-313.812800
349.691128,10120.462800,0.000000,-235.359600
349.691434,10042.009600,-392.266000,0.000000
349.691739,10042.009600,-549.172400,0.000000
349.692045,10120.462800,-235.359600,549.172400
349.692351,10198.916000,0.000000,0.000000
349.692656,10042.009600,0.000000,0.000000
349.692962,10277.369200,392.266000,-156.906400
349.693268,9963.556400,0.000000,0.000000
349.693573,9728.196800,0.000000,-549.172400
349.693879,10042.009600,0.000000,-313.812800
349.694184,9571.290400,-627.625600,-392.266000
349.694490,9806.650000,-784.532000,-313.812800
349.694796,10042.009600,-706.078800,-156.906400
349.695101,9728.196800,-235.359600,78.453200
349.695407,9649.743600,0.000000,862.985200
349.695713,10042.009600,0.000000,235.359600
349.696018,10042.009600,392.266000,78.453200
349.696324,10042.009600,78.453200,235.359600
349.696629,10042.009600,470.719200,0.000000
349.696935,9963.556400,313.812800,-862.985200
349.697241,10120.462800,-392.266000,-235.359600
349.697546,10042.009600,78.453200,-235.359600
349.697852,10042.009600,-313.812800,0.000000
349.698158,10042.009600,156.906400,0.000000
349.698463,10042.009600,-235.359600,78.453200
349.698769,10277.369200,-235.359600,313.812800
349.699074,10120.462800,784.532000,235.359600
349.699380,10198.916000,627.625600,78.453200
349.699686,10198.916000,862.985200,0.000000
349.699991,10277.369200,470.719200,0.000000
349.700297,9335.930800,0.000000,0.000000
349.700603,9100.571200,-78.453200,-313.812800
349.700908,9492.837200,-784.532000,-392.266000
349.701214,9492.837200,-627.625600,-941.438400
349.701519,8786.758400,-78.453200,-313.812800
349.701825,9728.196800,156.906400,1098.344800
349.702131,9492.837200,78.453200,235.359600
349.702436,9728.196800,706.078800,78.453200
349.702742,10042.009600,706.078800,235.359600
349.703048,9963.556400,313.812800,156.906400
349.703353,10198.916000,235.359600,313.812800
349.703659,10042.009600,0.000000,0.000000
349.703964,10120.462800,-313.812800,0.000000
349.704270,10042.009600,-392.266000,0.000000
349.704576,10042.009600,0.000000,0.000000
349.704881,9728.196800,78.453200,-235.359600
349.705187,9728.196800,156.906400,235.359600
349.705492,9963.556400,156.906400,78.453200
349.705798,10042.009600,0.000000,-156.906400
349.706104,10198.916000,0.000000,0.000000
349.706409,10355.822400,-313.812800,78.453200
349.706715,9728.196800,313.812800,313.812800
349.707021,10198.916000,0.000000,0.000000
349.707326,10120.462800,235.359600,-156.906400
349.707632,10042.009600,156.906400,0.000000
349.707937,10355.822400,0.000000,156.906400
349.708243,10120.462800,0.000000,-156.906400
349.708549,10198.916000,0.000000,313.812800
349.708854,10042.009600,235.359600,0.000000
349.709160,9963.556400,0.000000,0.000000
349.709466,10120.462800,-392.266000,0.000000
349.709771,10120.462800,156.906400,0.000000
349.710077,9728.196800,0.000000,-156.906400
349.710382,10042.009600,-392.266000,-235.359600
349.710688,9963.556400,-313.812800,0.000000
349.710994,9806.650000,-470.719200,-235.359600
349.711299,10120.462800,313.812800,235.359600
349.711605,9728.196800,0.000000,156.906400
349.711911,9963.556400,235.359600,0.000000
349.712216,9885.103200,392.266000,156.906400
349.712522,9806.650000,-470.719200,78.453200
349.712827,10355.822400,-156.906400,-392.266000
349.713133,10042.009600,-392.266000,-235.359600
349.713439,10042.009600,-470.719200,-235.359600
349.713744,10042.009600,0.000000,0.000000
349.714050,9885.103200,0.000000,235.359600
349.714356,9885.103200,-235.359600,235.359600
349.714661,10042.009600,0.000000,0.000000
349.714967,10042.009600,392.266000,0.000000
349.715272,10042.009600,784.532000,0.000000
349.715578,9963.556400,313.812800,0.000000
349.715884,9806.650000,78.453200,235.359600
349.716189,10198.916000,0.000000,-392.266000
349.716495,9885.103200,-235.359600,-313.812800
349.716801,9885.103200,-313.812800,-156.906400
349.717106,9963.556400,0.000000,-235.359600
349.717412,10591.182000,0.000000,156.906400
349.717717,10042.009600,0.000000,78.453200
349.718023,9963.556400,0.000000,392.266000
349.718329,10042.009600,235.359600,313.812800
349.718634,10198.916000,470.719200,470.719200
349.718940,10042.009600,0.000000,156.906400
349.719246,10120.462800,392.266000,0.000000
349.719551,10042.009600,78.453200,0.000000
349.719857,10277.369200,-470.719200,-470.719200
349.720162,9728.196800,0.000000,-313.812800
349.720468,9885.103200,0.000000,-941.438400
349.720774,10198.916000,0.000000,-313.812800
349.721079,10042.009600,-470.719200,0.000000
349.721385,9806.650000,0.000000,0.000000
349.721690,10042.009600,156.906400,78.453200
349.721996,9885.103200,-470.719200,-235.359600
349.722302,9728.196800,0.000000,0.000000
349.722607,10042.009600,0.000000,0.000000
349.722913,9806.650000,-313.812800,0.000000
349.723219,10277.369200,-235.359600,0.000000
349.723524,10042.009600,-235.359600,0.000000
349.723830,9885.103200,-627.625600,-156.906400
349.724135,10277.369200,-627.625600,0.000000
349.724441,10042.009600,392.266000,0.000000
349.724747,9885.103200,0.000000,0.000000
349.725052,10042.009600,0.000000,0.000000
349.725358,9492.837200,0.000000,0.000000
349.725664,9963.556400,-156.906400,0.000000
349.725969,9728.196800,392.266000,-313.812800
349.726275,10120.462800,0.000000,0.000000
349.726580,10042.009600,78.453200,0.000000
349.726886,9963.556400,0.000000,0.000000
349.727192,10042.009600,0.000000,0.000000
349.727497,10042.009600,392.266000,-156.906400
349.727803,10042.009600,470.719200,-235.359600
349.728109,9885.103200,549.172400,0.000000
349.728414,9885.103200,-470.719200,78.453200
349.728720,9492.837200,-706.078800,0.000000
349.729025,9806.650000,-470.719200,0.000000
349.729331,9649.743600,-313.812800,0.000000
349.729637,9728.196800,156.906400,0.000000
349.729942,10042.009600,235.359600,156.906400
349.730248,9806.650000,313.812800,235.359600
349.730554,9806.650000,313.812800,235.359600
349.730859,10042.009600,0.000000,78.453200
349.731165,9885.103200,156.906400,0.000000
349.731470,10042.009600,627.625600,0.000000
349.731776,10277.369200,78.453200,0.000000
349.732082,10042.009600,0.000000,156.906400
349.732387,10042.009600,-627.625600,0.000000
349.732693,10042.009600,-313.812800,-235.359600
349.732999,10042.009600,-470.719200,-235.359600
349.733304,9885.103200,0.000000,0.000000
349.733610,10120.462800,78.453200,0.000000
349.733915,10198.916000,156.906400,-78.453200
349.734221,10120.462800,0.000000,0.000000
349.734527,10042.009600,0.000000,0.000000
349.734832,10277.369200,-549.172400,0.000000
349.735138,9728.196800,-706.078800,78.453200
349.735444,9885.103200,-784.532000,0.000000
349.735749,9806.650000,-392.266000,0.000000
349.736055,9885.103200,0.000000,-235.359600
349.736360,9728.196800,235.359600,549.172400
349.736666,10591.182000,-549.172400,0.000000
349.736972,10198.916000,862.985200,-78.453200
349.737277,9885.103200,-78.453200,1176.798000
349.737583,10748.088400,-313.812800,156.906400
349.737888,10198.916000,78.453200,0.000000
349.738194,9414.384000,-470.719200,78.453200
349.738500,9728.196800,-313.812800,0.000000
349.738805,9885.103200,-627.625600,-392.266000
349.739111,9806.650000,0.000000,0.000000
349.739417,10120.462800,0.000000,-156.906400
349.739722,9571.290400,0.000000,-156.906400
349.740028,10120.462800,470.719200,0.000000
349.740333,10355.822400,235.359600,0.000000
349.740639,9885.103200,156.906400,0.000000
349.740945,10042.009600,313.812800,0.000000
349.741250,10120.462800,78.453200,0.000000
349.741556,9728.196800,-156.906400,0.000000
349.741862,9728.196800,0.000000,-235.359600
349.742167,10042.009600,-392.266000,-156.906400
349.742473,10042.009600,0.000000,-313.812800
349.742778,10042.009600,784.532000,235.359600
349.743084,10198.916000,549.172400,0.000000
349.743390,10120.462800,784.532000,0.000000
349.743695,10512.728800,470.719200,235.359600
349.744001,10277.369200,313.812800,0.000000
349.744307,10198.916000,0.000000,0.000000
349.744612,9885.103200,-392.266000,0.000000
349.744918,9728.196800,-313.812800,0.000000
349.745223,9806.650000,-392.266000,0.000000
349.745529,9885.103200,-235.359600,0.000000
349.745835,9885.103200,235.359600,0.000000
349.746140,9963.556400,313.812800,-392.266000
349.746446,9963.556400,627.625600,0.000000
349.746752,9963.556400,156.906400,0.000000
349.747057,10042.009600,156.906400,0.000000
349.747363,9885.103200,313.812800,862.985200
349.747668,10042.009600,0.000000,313.812800
349.747974,9806.650000,0.000000,235.359600
349.748280,9806.650000,0.000000,235.359600
349.748585,9728.196800,0.000000,235.359600
349.748891,10042.009600,78.453200,313.812800
349.749197,10042.009600,235.359600,392.266000
349.749502,10198.916000,784.532000,-156.906400
349.749808,10277.369200,941.438400,-156.906400
349.750113,10120.462800,706.078800,0.000000
349.750419,9963.556400,627.625600,-156.906400
349.750725,10198.916000,313.812800,235.359600
349.751030,10042.009600,0.000000,156.906400
349.751336,9728.196800,156.906400,235.359600
349.751642,9885.103200,470.719200,0.000000
349.751947,10042.009600,0.000000,0.000000
349.752253,10198.916000,156.906400,-941.438400
349.752558,10120.462800,549.172400,78.453200
349.752864,10042.009600,784.532000,0.000000
349.753170,9963.556400,392.266000,0.000000
349.753475,10042.009600,549.172400,0.000000
349.753781,10120.462800,862.985200,-156.906400
349.754086,9963.556400,0.000000,-235.359600
349.754392,9885.103200,-235.359600,0.000000
349.754698,9806.650000,0.000000,-78.453200
349.755003,9963.556400,-313.812800,0.000000
349.755309,8786.758400,235.359600,0.000000
349.755615,9649.743600,0.000000,-235.359600
349.755920,9963.556400,0.000000,0.000000
349.756226,9885.103200,549.172400,-156.906400
349.756531,9806.650000,313.812800,-549.172400
349.756837,9885.103200,78.453200,-627.625600
349.757143,9728.196800,-470.719200,-235.359600
349.757448,9649.743600,-392.266000,0.000000
349.757754,9885.103200,0.000000,235.359600
349.758060,10042.009600,-235.359600,156.906400
349.758365,10042.009600,0.000000,470.719200
349.758671,9963.556400,392.266000,549.172400
349.758976,10512.728800,313.812800,235.359600
349.759282,10198.916000,470.719200,235.359600
349.759588,10277.369200,156.906400,-156.906400
349.759893,10277.369200,0.000000,0.000000
349.760199,10120.462800,-706.078800,-313.812800
349.760505,10042.009600,-706.078800,0.000000
349.760810,9414.384000,-470.719200,-313.812800
349.761116,9492.837200,-549.172400,-706.078800
349.761421,9649.743600,-549.172400,0.000000
349.761727,9414.384000,-235.359600,235.359600
349.762033,10042.009600,-549.172400,392.266000
349.762338,9963.556400,0.000000,313.812800
349.762644,10355.822400,0.000000,235.359600
349.762950,10120.462800,-627.625600,78.453200
349.763255,10277.369200,-470.719200,0.000000
349.763561,9649.743600,-1098.344800,-313.812800
349.763866,9649.743600,-2432.049200,-392.266000
349.764172,9963.556400,-1804.423600,-313.812800
349.764478,9649.743600,-1569.064000,-156.906400
349.764783,10042.009600,-1725.970400,0.000000
349.765089,10120.462800,-941.438400,78.453200
349.765395,10042.009600,-1255.251200,78.453200
349.765700,9963.556400,-313.812800,0.000000
349.766006,10120.462800,-392.266000,0.000000
349.766311,10904.994800,-1490.610800,-235.359600
349.766617,10042.009600,-1490.610800,-156.906400
349.766923,9963.556400,-2510.502400,-392.266000
349.767228,10042.009600,-2432.049200,-235.359600
349.767534,9179.024400,-2275.142800,-706.078800
349.767839,9571.290400,-2902.768400,0.000000
349.768145,9649.743600,-2432.049200,0.000000
349.768451,10120.462800,-2353.596000,78.453200
349.768756,9806.650000,-1882.876800,156.906400
349.769062,10120.462800,-1176.798000,235.359600
349.769368,10512.728800,-1569.064000,156.906400
349.769673,10198.916000,-1725.970400,392.266000
349.769979,9963.556400,-2196.689600,78.453200
349.770284,9728.196800,-2902.768400,-235.359600
349.770590,9806.650000,-2902.768400,-706.078800
349.770896,9492.837200,-3451.940800,-706.078800
349.771201,9492.837200,-3687.300400,-1647.517200
349.771507,9728.196800,-3608.847200,-784.532000
349.771813,9963.556400,-3530.394000,-549.172400
349.772118,9414.384000,-2981.221600,0.000000
349.772424,9963.556400,-2510.502400,549.172400
349.772729,10512.728800,-1490.610800,78.453200
349.773035,10042.009600,-2588.955600,941.438400
349.773341,10512.728800,-2981.221600,549.172400
349.773646,9571.290400,-3138.128000,235.359600
349.773952,9963.556400,-3451.940800,-549.172400
349.774258,9806.650000,-4236.472800,-470.719200
349.774563,9963.556400,-4079.566400,-784.532000
349.774869,9728.196800,-4471.832400,-706.078800
349.775174,9885.103200,-4079.566400,-549.172400
349.775480,9963.556400,-3530.394000,-627.625600
349.775786,10042.009600,-3608.847200,-313.812800
349.776091,10277.369200,-3295.034400,-392.266000
349.776397,10198.916000,-2981.221600,0.000000
349.776703,10042.009600,-2902.768400,235.359600
349.777008,10042.009600,-3373.487600,392.266000
349.777314,10042.009600,-3530.394000,313.812800
349.777619,10042.009600,-4001.113200,706.078800
349.777925,9492.837200,-4001.113200,0.000000
349.778231,9806.650000,-3844.206800,-392.266000
349.778536,9885.103200,-4158.019600,-627.625600
349.778842,9806.650000,-3765.753600,-627.625600
349.779148,10042.009600,-3765.753600,-313.812800
349.779453,10042.009600,-4236.472800,0.000000
349.779759,10198.916000,-4001.113200,313.812800
349.780064,10042.009600,-3844.206800,156.906400
349.780370,9885.103200,-3530.394000,313.812800
349.780676,9885.103200,-3765.753600,0.000000
349.780981,9885.103200,-3765.753600,0.000000
349.781287,9963.556400,-3608.847200,-235.359600
349.781593,10120.462800,-3687.300400,-392.266000
349.781898,9649.743600,-3530.394000,-470.719200
349.782204,9885.103200,-3844.206800,-941.438400
349.782509,10277.369200,-4001.113200,-313.812800
349.782815,9806.650000,-3765.753600,0.000000
349.783121,9963.556400,-3765.753600,0.000000
349.783426,10042.009600,-3608.847200,392.266000
349.783732,10277.369200,-3451.940800,313.812800
349.784037,10669.635200,-3216.581200,78.453200
349.784343,10198.916000,-3216.581200,235.359600
349.784649,10042.009600,-2902.768400,-156.906400
349.784954,9963.556400,-3138.128000,-235.359600
349.785260,9963.556400,-3608.847200,-392.266000
349.785566,9963.556400,-3530.394000,-706.078800
349.785871,9728.196800,-4079.566400,-392.266000
349.786177,9806.650000,-4079.566400,-470.719200
349.786482,9649.743600,-3687.300400,0.000000
349.786788,9728.196800,-3608.847200,0.000000
349.787094,10120.462800,-3216.581200,-627.625600
349.787399,9963.556400,-2824.315200,-156.906400
349.787705,9806.650000,-2667.408800,0.000000
349.788011,9963.556400,-2745.862000,0.000000
349.788316,10277.369200,-3295.034400,78.453200
349.788622,10748.088400,-3059.674800,156.906400
349.788927,9728.196800,-3373.487600,0.000000
349.789233,9806.650000,-3608.847200,-392.266000
349.789539,9649.743600,-3608.847200,-470.719200
349.789844,9649.743600,-3530.394000,-549.172400
349.790150,8786.758400,-2745.862000,-1019.891600
349.790456,9649.743600,-3216.581200,-313.812800
349.790761,9963.556400,-2981.221600,0.000000
349.791067,9414.384000,-2588.955600,78.453200
349.791372,9963.556400,-3295.034400,-156.906400
349.791678,10042.009600,-2588.955600,-627.625600
349.791984,9492.837200,-3059.674800,0.000000
349.792289,9963.556400,-3138.128000,-235.359600
349.792595,9963.556400,-2902.768400,0.000000
349.792901,9963.556400,-2981.221600,-235.359600
349.793206,10042.009600,-2745.862000,0.000000
349.793512,10277.369200,-2432.049200,-313.812800
349.793817,9728.196800,-1961.330000,0.000000
349.794123,10042.009600,-1961.330000,-156.906400
349.794429,9963.556400,-1647.517200,-313.812800
349.794734,10042.009600,-1804.423600,-313.812800
349.795040,9649.743600,-2118.236400,-235.359600
349.795346,9885.103200,-1961.330000,0.000000
349.795651,9885.103200,-2118.236400,0.000000
349.795957,9963.556400,-2196.689600,0.000000
349.796262,9885.103200,-2118.236400,0.000000
349.796568,10355.822400,-1725.970400,156.906400
349.796874,10042.009600,-1569.064000,0.000000
349.797179,10042.009600,-1569.064000,78.453200
349.797485,10042.009600,-1333.704400,0.000000
349.797791,10042.009600,-1176.798000,0.000000
349.798096,10042.009600,-1490.610800,235.359600
349.798402,9885.103200,-1176.798000,-156.906400
349.798707,10042.009600,-1255.251200,156.906400
349.799013,9728.196800,-1333.704400,0.000000
349.799319,9885.103200,-1176.798000,0.000000
349.799624,10042.009600,-862.985200,-549.172400
349.799930,9885.103200,-1098.344800,-235.359600
349.800235,10042.009600,-1019.891600,0.000000
349.800541,10042.009600,-1098.344800,-156.906400
349.800847,10120.462800,-1019.891600,0.000000
349.801152,10120.462800,-392.266000,-156.906400
349.801458,10120.462800,-627.625600,0.000000
349.801764,10042.009600,-784.532000,0.000000
349.802069,10120.462800,-706.078800,-156.906400
349.802375,10042.009600,-706.078800,0.000000
349.802680,10042.009600,-784.532000,0.000000
349.802986,10277.369200,-1098.344800,156.906400
349.803292,9806.650000,-862.985200,-156.906400
349.803597,9885.103200,-862.985200,-235.359600
349.803903,9806.650000,-627.625600,0.000000
349.804209,9885.103200,-706.078800,0.000000
349.804514,10434.275600,-392.266000,235.359600
349.804820,10120.462800,-470.719200,0.000000
349.805125,10120.462800,-235.359600,0.000000
349.805431,10198.916000,-235.359600,-313.812800
349.805737,10198.916000,-392.266000,-235.359600
349.806042,10042.009600,-156.906400,0.000000
349.806348,9885.103200,-313.812800,0.000000
349.806654,10042.009600,-627.625600,0.000000
349.806959,9806.650000,-627.625600,0.000000
349.807265,9806.650000,0.000000,0.000000
349.807570,10120.462800,-784.532000,0.000000
349.807876,10042.009600,-235.359600,0.000000
349.808182,11061.901200,-392.266000,235.359600
349.808487,10277.369200,235.359600,0.000000
349.808793,10591.182000,0.000000,0.000000
349.809099,10669.635200,-78.453200,470.719200
349.809404,10198.916000,0.000000,-235.359600
349.809710,10042.009600,0.000000,0.000000
349.810015,9414.384000,156.906400,0.000000
349.810321,9963.556400,-235.359600,0.000000
349.810627,10042.009600,0.000000,549.172400
349.810932,9571.290400,-156.906400,313.812800
349.811238,9649.743600,78.453200,0.000000
349.811544,9963.556400,78.453200,0.000000
349.811849,9885.103200,-156.906400,0.000000
349.812155,9885.103200,78.453200,235.359600
349.812460,10042.009600,392.266000,784.532000
349.812766,9963.556400,0.000000,0.000000
349.813072,9963.556400,0.000000,0.000000
349.813377,10042.009600,-156.906400,78.453200
349.813683,9885.103200,0.000000,-313.812800
349.813989,9571.290400,0.000000,0.000000
349.814294,10042.009600,0.000000,0.000000
349.814600,10042.009600,156.906400,78.453200
349.814905,9963.556400,235.359600,0.000000
349.815211,9885.103200,156.906400,78.453200
349.815517,10042.009600,156.906400,313.812800
349.815822,9963.556400,78.453200,-156.906400
349.816128,9806.650000,0.000000,0.000000
349.816433,10042.009600,0.000000,0.000000
349.816739,9885.103200,0.000000,0.000000
349.817045,9963.556400,156.906400,78.453200
349.817350,10120.462800,78.453200,0.000000
349.817656,10042.009600,156.906400,0.000000
349.817962,10042.009600,0.000000,0.000000
349.818267,10120.462800,0.000000,0.000000
349.818573,10042.009600,156.906400,-78.453200
349.818878,10120.462800,235.359600,-706.078800
349.819184,9963.556400,0.000000,0.000000
349.819490,10042.009600,0.000000,78.453200
349.819795,9963.556400,0.000000,-235.359600
349.820101,9963.556400,78.453200,0.000000
349.820407,10434.275600,0.000000,470.719200
349.820712,9963.556400,78.453200,78.453200
349.821018,10042.009600,235.359600,78.453200
349.821323,9963.556400,392.266000,0.000000
349.821629,9728.196800,470.719200,78.453200
349.821935,10277.369200,313.812800,470.719200
349.822240,9963.556400,392.266000,0.000000
349.822546,9963.556400,235.359600,0.000000
349.822852,10042.009600,156.906400,0.000000
349.823157,9963.556400,235.359600,0.000000
349.823463,10042.009600,392.266000,313.812800
349.823768,10042.009600,470.719200,0.000000
349.824074,10042.009600,235.359600,0.000000
349.824380,10042.009600,470.719200,156.906400
349.824685,9963.556400,470.719200,78.453200
349.824991,9963.556400,549.172400,78.453200
349.825297,9885.103200,0.000000,0.000000
349.825602,10120.462800,470.719200,0.000000
349.825908,10042.009600,313.812800,0.000000
349.826213,10120.462800,0.000000,0.000000
349.826519,9806.650000,156.906400,235.359600
349.826825,9571.290400,-78.453200,1725.970400
349.827130,11061.901200,0.000000,313.812800
349.827436,10042.009600,1490.610800,0.000000
349.827742,10042.009600,235.359600,0.000000
349.828047,10042.009600,549.172400,235.359600
349.828353,10042.009600,549.172400,78.453200
349.828658,10042.009600,549.172400,0.000000
349.828964,9963.556400,313.812800,78.453200
349.829270,10042.009600,235.359600,0.000000
349.829575,10042.009600,313.812800,0.000000
349.829881,9414.384000,470.719200,78.453200
349.830186,10042.009600,392.266000,-235.359600
349.830492,10120.462800,313.812800,0.000000
349.830798,9963.556400,392.266000,0.000000
349.831103,9963.556400,313.812800,0.000000
349.831409,10277.369200,549.172400,392.266000
349.831715,10042.009600,156.906400,0.000000
349.832020,10042.009600,313.812800,156.906400
349.832326,9963.556400,0.000000,0.000000
349.832631,10042.009600,235.359600,0.000000
349.832937,10042.009600,235.359600,0.000000
349.833243,9571.290400,313.812800,235.359600
349.833548,10042.009600,235.359600,0.000000
349.833854,9806.650000,235.359600,0.000000
349.834160,9963.556400,235.359600,0.000000
349.834465,9963.556400,156.906400,0.000000
349.834771,10042.009600,392.266000,156.906400
349.835076,9806.650000,392.266000,0.000000
349.835382,9963.556400,156.906400,0.000000
349.835688,9963.556400,313.812800,0.000000
349.835993,10042.009600,78.453200,0.000000
349.836299,9806.650000,156.906400,549.172400
349.836605,9806.650000,156.906400,0.000000
349.836910,10042.009600,156.906400,0.000000
349.837216,10042.009600,0.000000,0.000000
349.837521,9885.103200,313.812800,78.453200
349.837827,10198.916000,235.359600,-862.985200
349.838133,10042.009600,156.906400,0.000000
349.838438,10120.462800,78.453200,0.000000
349.838744,10042.009600,0.000000,0.000000
349.839050,9963.556400,78.453200,0.000000
349.839355,10120.462800,156.906400,313.812800
349.839661,9806.650000,0.000000,-235.359600
349.839966,9885.103200,78.453200,0.000000
349.840272,9885.103200,0.000000,0.000000
349.840578,9963.556400,0.000000,0.000000
349.840883,9885.103200,0.000000,-627.625600
349.841189,10042.009600,156.906400,0.000000
349.841495,10042.009600,0.000000,78.453200
349.841800,9963.556400,78.453200,0.000000
349.842106,9963.556400,156.906400,0.000000
349.842411,10042.009600,156.906400,235.359600
349.842717,10042.009600,0.000000,0.000000
349.843023,10042.009600,0.000000,0.000000
349.843328,10120.462800,0.000000,0.000000
349.843634,10042.009600,0.000000,78.453200
349.843940,9885.103200,0.000000,156.906400
349.844245,9885.103200,0.000000,549.172400
349.844551,10120.462800,0.000000,-235.359600
349.844856,9100.571200,156.906400,0.000000
349.845162,9806.650000,0.000000,-78.453200
349.845468,9885.103200,-313.812800,-784.532000
349.845773,9963.556400,-235.359600,549.172400
349.846079,10591.182000,-784.532000,-235.359600
349.846384,9885.103200,78.453200,0.000000
349.846690,10042.009600,78.453200,0.000000
349.846996,10042.009600,156.906400,0.000000
349.847301,10042.009600,156.906400,-627.625600
349.847607,10120.462800,156.906400,0.000000
349.847913,10042.009600,0.000000,0.000000
349.848218,9885.103200,235.359600,78.453200
349.848524,9885.103200,156.906400,78.453200
349.848829,9885.103200,156.906400,0.000000
349.849135,10355.822400,-156.906400,0.000000
349.849441,10042.009600,78.453200,78.453200
349.849746,9806.650000,156.906400,0.000000
349.850052,9806.650000,235.359600,0.000000
349.850358,10042.009600,0.000000,0.000000
349.850663,10042.009600,78.453200,0.000000
349.850969,10042.009600,0.000000,0.000000
349.851274,10042.009600,0.000000,78.453200
349.851580,10042.009600,78.453200,0.000000
349.851886,9885.103200,0.000000,0.000000
349.852191,9885.103200,235.359600,313.812800
349.852497,10042.009600,0.000000,0.000000
349.852803,10042.009600,0.000000,-156.906400
349.853108,10042.009600,0.000000,156.906400
349.853414,9963.556400,0.000000,0.000000
349.853719,9885.103200,0.000000,0.000000
349.854025,10042.009600,0.000000,0.000000
349.854331,10042.009600,0.000000,0.000000
349.854636,10042.009600,0.000000,0.000000
349.854942,9963.556400,0.000000,156.906400
349.855248,9963.556400,156.906400,0.000000
349.855553,10042.009600,0.000000,0.000000
349.855859,9963.556400,78.453200,78.453200
349.856164,9963.556400,0.000000,0.000000
349.856470,10042.009600,0.000000,0.000000
349.856776,10042.009600,0.000000,235.359600
349.857081,10198.916000,0.000000,78.453200
349.857387,10042.009600,0.000000,0.000000
349.857693,10042.009600,78.453200,0.000000
349.857998,10120.462800,0.000000,0.000000
349.858304,10042.009600,0.000000,0.000000
349.858609,10277.369200,-235.359600,156.906400
349.858915,9963.556400,78.453200,0.000000
349.859221,10042.009600,0.000000,0.000000
349.859526,10042.009600,0.000000,0.000000
349.859832,10042.009600,0.000000,0.000000
349.860138,10355.822400,78.453200,156.906400
349.860443,10042.009600,0.000000,0.000000
349.860749,10042.009600,0.000000,0.000000
349.861054,9885.103200,0.000000,0.000000
349.861360,9963.556400,0.000000,0.000000
349.861666,9963.556400,-392.266000,0.000000
349.861971,10042.009600,-78.453200,0.000000
349.862277,10042.009600,1176.798000,-235.359600
349.862582,9885.103200,235.359600,235.359600
349.862888,10512.728800,-78.453200,78.453200
349.863194,9728.196800,313.812800,-78.453200
349.863499,10591.182000,0.000000,0.000000
349.863805,9963.556400,0.000000,0.000000
349.864111,10042.009600,0.000000,-78.453200
349.864416,10042.009600,0.000000,0.000000
349.864722,10042.009600,-156.906400,235.359600
349.865027,9963.556400,-78.453200,313.812800
349.865333,9963.556400,0.000000,0.000000
349.865639,9885.103200,0.000000,0.000000
349.865944,10042.009600,-156.906400,0.000000
349.866250,10042.009600,0.000000,156.906400
349.866556,9963.556400,0.000000,78.453200
349.866861,10042.009600,-313.812800,0.000000
349.867167,10042.009600,-235.359600,-156.906400
349.867472,10042.009600,-313.812800,0.000000
349.867778,10042.009600,0.000000,0.000000
349.868084,10042.009600,-156.906400,235.359600
349.868389,10042.009600,0.000000,0.000000
349.868695,10042.009600,0.000000,0.000000
349.869001,9963.556400,-235.359600,0.000000
349.869306,9885.103200,-78.453200,0.000000
349.869612,10042.009600,-235.359600,-549.172400
349.869917,9963.556400,0.000000,0.000000
349.870223,9963.556400,0.000000,78.453200
349.870529,10042.009600,0.000000,0.000000
349.870834,9963.556400,0.000000,78.453200
349.871140,10277.369200,-313.812800,0.000000
349.871446,10042.009600,0.000000,-235.359600
349.871751,10042.009600,-156.906400,0.000000
349.872057,10042.009600,0.000000,78.453200
349.872362,9963.556400,0.000000,78.453200
349.872668,10042.009600,0.000000,0.000000
349.872974,10591.182000,-470.719200,0.000000
349.873279,10042.009600,-156.906400,0.000000
349.873585,10042.009600,-313.812800,0.000000
349.873891,9885.103200,0.000000,0.000000
349.874196,9963.556400,0.000000,0.000000
349.874502,10042.009600,0.000000,313.812800
349.874807,10120.462800,0.000000,0.000000
349.875113,10042.009600,-235.359600,-156.906400
349.875419,10042.009600,0.000000,78.453200
349.875724,10042.009600,-235.359600,0.000000
349.876030,9806.650000,156.906400,0.000000
349.876336,9885.103200,0.000000,78.453200
349.876641,9963.556400,-156.906400,0.000000
349.876947,10042.009600,-156.906400,0.000000
349.877252,9963.556400,-235.359600,0.000000
349.877558,9885.103200,313.812800,0.000000
349.877864,9806.650000,0.000000,0.000000
349.878169,9963.556400,0.000000,0.000000
349.878475,10042.009600,-156.906400,0.000000
349.878780,9963.556400,0.000000,0.000000
349.879086,10042.009600,78.453200,549.172400
349.879392,9963.556400,-627.625600,-313.812800
349.879697,10042.009600,0.000000,0.000000
349.880003,9963.556400,-392.266000,0.000000
349.880309,9963.556400,-156.906400,-627.625600
349.880614,9257.477600,-313.812800,0.000000
349.880920,9963.556400,-549.172400,313.812800
349.881225,9963.556400,862.985200,-313.812800
349.881531,9649.743600,-156.906400,862.985200
349.881837,10120.462800,-313.812800,0.000000
349.882142,9963.556400,156.906400,78.453200
349.882448,9728.196800,0.000000,78.453200
349.882754,9806.650000,0.000000,0.000000
349.883059,9885.103200,0.000000,78.453200
349.883365,9885.103200,0.000000,0.000000
349.883670,10042.009600,-156.906400,0.000000
349.883976,10355.822400,0.000000,549.172400
349.884282,10042.009600,0.000000,0.000000
349.884587,9963.556400,0.000000,0.000000
349.884893,9806.650000,78.453200,78.453200
349.885199,10042.009600,0.000000,0.000000
349.885504,9885.103200,0.000000,0.000000
349.885810,10042.009600,0.000000,0.000000
349.886115,10042.009600,0.000000,-235.359600
349.886421,10042.009600,0.000000,0.000000
349.886727,10042.009600,0.000000,0.000000
349.887032,9963.556400,156.906400,0.000000
349.887338,10120.462800,-235.359600,-313.812800
349.887644,10042.009600,0.000000,-235.359600
349.887949,9885.103200,0.000000,0.000000
349.888255,9885.103200,0.000000,0.000000
349.888560,9963.556400,0.000000,0.000000
349.888866,10042.009600,313.812800,-392.266000
349.889172,9963.556400,0.000000,0.000000
349.889477,10042.009600,0.000000,0.000000
349.889783,10042.009600,0.000000,0.000000
349.890089,10042.009600,0.000000,0.000000
349.890394,10277.369200,0.000000,78.453200
349.890700,10042.009600,78.453200,0.000000
349.891005,9885.103200,0.000000,0.000000
349.891311,9963.556400,0.000000,0.000000
349.891617,10042.009600,0.000000,0.000000
349.891922,10120.462800,-392.266000,-313.812800
349.892228,10120.462800,0.000000,0.000000
349.892533,9963.556400,0.000000,0.000000
349.892839,9963.556400,0.000000,0.000000
349.893145,10042.009600,0.000000,0.000000
349.893450,9885.103200,941.438400,0.000000
349.893756,9963.556400,235.359600,313.812800
349.894062,9963.556400,156.906400,0.000000
349.894367,10042.009600,0.000000,-156.906400
349.894673,9885.103200,0.000000,0.000000
349.894978,9963.556400,0.000000,0.000000
349.895284,9963.556400,156.906400,78.453200
349.895590,9885.103200,78.453200,0.000000
349.895895,10120.462800,0.000000,-156.906400
349.896201,10042.009600,156.906400,0.000000
349.896507,10042.009600,0.000000,0.000000
349.896812,10277.369200,392.266000,470.719200
349.897118,10042.009600,78.453200,0.000000
349.897423,10042.009600,156.906400,0.000000
349.897729,10042.009600,156.906400,0.000000
349.898035,9885.103200,156.906400,0.000000
349.898340,10120.462800,235.359600,0.000000
349.898646,9414.384000,392.266000,0.000000
349.898952,9728.196800,0.000000,-313.812800
349.899257,9963.556400,-156.906400,-706.078800
349.899563,9257.477600,-78.453200,-78.453200
349.899868,9414.384000,627.625600,313.812800
349.900174,10277.369200,862.985200,-549.172400
349.900480,9885.103200,0.000000,0.000000
349.900785,9963.556400,0.000000,0.000000
349.901091,10042.009600,235.359600,-235.359600
349.901397,10042.009600,0.000000,0.000000
349.901702,9885.103200,0.000000,0.000000
349.902008,9885.103200,78.453200,0.000000
349.902313,10042.009600,0.000000,0.000000
349.902619,10042.009600,78.453200,0.000000
349.902925,10042.009600,78.453200,0.000000
349.903230,10591.182000,156.906400,235.359600
349.903536,10042.009600,156.906400,0.000000
349.903842,10120.462800,78.453200,0.000000
349.904147,10042.009600,0.000000,-156.906400
349.904453,10042.009600,0.000000,0.000000
349.904758,10198.916000,235.359600,235.359600
349.905064,9885.103200,235.359600,0.000000
349.905370,10042.009600,78.453200,0.000000
349.905675,10042.009600,78.453200,0.000000
349.905981,9885.103200,156.906400,0.000000
349.906287,9885.103200,0.000000,-235.359600
349.906592,9885.103200,235.359600,0.000000
349.906898,10042.009600,156.906400,-156.906400
349.907203,9885.103200,156.906400,0.000000
349.907509,9963.556400,0.000000,0.000000
349.907815,9885.103200,470.719200,-156.906400
349.908120,9963.556400,0.000000,0.000000
349.908426,9728.196800,156.906400,0.000000
349.908731,10042.009600,0.000000,0.000000
349.909037,9963.556400,78.453200,0.000000
349.909343,9571.290400,0.000000,0.000000
349.909648,9885.103200,0.000000,0.000000
349.909954,9963.556400,78.453200,0.000000
349.910260,10042.009600,156.906400,0.000000
349.910565,10042.009600,-156.906400,0.000000
349.910871,10120.462800,156.906400,392.266000
349.911176,9963.556400,0.000000,0.000000
349.911482,10042.009600,0.000000,-235.359600
349.911788,9963.556400,0.000000,0.000000
349.912093,10042.009600,0.000000,0.000000
349.912399,9806.650000,392.266000,235.359600
349.912705,9885.103200,235.359600,0.000000
349.913010,10042.009600,0.000000,0.000000
349.913316,9963.556400,78.453200,78.453200
349.913621,9963.556400,0.000000,0.000000
349.913927,9885.103200,0.000000,-156.906400
349.914233,10042.009600,0.000000,0.000000
349.914538,10042.009600,0.000000,0.000000
349.914844,10042.009600,78.453200,0.000000
349.915150,10042.009600,0.000000,0.000000
349.915455,10042.009600,156.906400,0.000000
349.915761,10042.009600,156.906400,0.000000
349.916066,10042.009600,0.000000,0.000000
349.916372,9885.103200,392.266000,313.812800
349.916678,10355.822400,-78.453200,313.812800
349.916983,10120.462800,0.000000,-156.906400
349.917289,10277.369200,0.000000,0.000000
349.917595,10042.009600,392.266000,313.812800
349.917900,9885.103200,0.000000,0.000000
349.918206,9728.196800,0.000000,0.000000
349.918511,9963.556400,78.453200,0.000000
349.918817,10042.009600,235.359600,0.000000
349.919123,10042.009600,0.000000,0.000000
349.919428,9806.650000,0.000000,0.000000
349.919734,9963.556400,156.906400,0.000000
349.920040,9885.103200,78.453200,-156.906400
349.920345,10042.009600,-235.359600,0.000000
349.920651,10042.009600,78.453200,0.000000
349.920956,9728.196800,0.000000,0.000000
349.921262,9963.556400,0.000000,78.453200
349.921568,10198.916000,0.000000,0.000000
349.921873,9963.556400,78.453200,-784.532000
349.922179,9728.196800,156.906400,0.000000
349.922485,9963.556400,78.453200,0.000000
349.922790,9963.556400,0.000000,0.000000
349.923096,9885.103200,156.906400,0.000000
349.923401,10042.009600,0.000000,0.000000
349.923707,10355.822400,0.000000,392.266000
349.924013,9885.103200,0.000000,0.000000
349.924318,9963.556400,0.000000,0.000000
349.924624,9885.103200,0.000000,78.453200
349.924929,9963.556400,0.000000,0.000000
349.925235,10277.369200,313.812800,235.359600
349.925541,9963.556400,0.000000,0.000000
349.925846,9806.650000,0.000000,0.000000
349.926152,9885.103200,0.000000,0.000000
349.926458,9885.103200,78.453200,0.000000
349.926763,10826.541600,-156.906400,0.000000
349.927069,10198.916000,0.000000,0.000000
349.927374,9885.103200,156.906400,0.000000
349.927680,9963.556400,0.000000,78.453200
349.927986,10042.009600,0.000000,0.000000
349.928291,9885.103200,156.906400,0.000000
349.928597,9963.556400,0.000000,0.000000
349.928903,10120.462800,0.000000,0.000000
349.929208,10198.916000,0.000000,0.000000
349.929514,10042.009600,78.453200,78.453200
349.929819,9885.103200,235.359600,0.000000
349.930125,10042.009600,470.719200,78.453200
349.930431,10042.009600,0.000000,0.000000
349.930736,10042.009600,156.906400,0.000000
349.931042,9963.556400,0.000000,0.000000
349.931348,10042.009600,0.000000,0.000000
349.931653,10042.009600,156.906400,0.000000
349.931959,10042.009600,0.000000,78.453200
349.932264,9885.103200,0.000000,0.000000
349.932570,9963.556400,78.453200,0.000000
349.932876,9885.103200,0.000000,0.000000
349.933181,9806.650000,549.172400,470.719200
349.933487,10042.009600,0.000000,0.000000
349.933793,9963.556400,78.453200,0.000000
349.934098,10042.009600,0.000000,0.000000
349.934404,9022.118000,78.453200,549.172400
349.934709,10904.994800,-706.078800,-235.359600
349.935015,10120.462800,784.532000,0.000000
349.935321,9885.103200,0.000000,862.985200
349.935626,10904.994800,-392.266000,313.812800
349.935932,10198.916000,0.000000,0.000000
349.936238,10120.462800,0.000000,0.000000
349.936543,9963.556400,-78.453200,0.000000
349.936849,10042.009600,0.000000,0.000000
349.937154,10042.009600,78.453200,0.000000
349.937460,10042.009600,0.000000,78.453200
349.937766,10120.462800,0.000000,0.000000
349.938071,10277.369200,-392.266000,0.000000
349.938377,10042.009600,78.453200,-156.906400
349.938683,9963.556400,0.000000,-78.453200
349.938988,10042.009600,0.000000,0.000000
349.939294,10042.009600,0.000000,0.000000
349.939599,10042.009600,0.000000,0.000000
349.939905,9963.556400,0.000000,0.000000
349.940211,10042.009600,0.000000,0.000000
349.940516,10042.009600,0.000000,0.000000
349.940822,9963.556400,0.000000,0.000000
349.941127,10120.462800,235.359600,0.000000
349.941433,10120.462800,-235.359600,-156.906400
349.941739,10042.009600,0.000000,0.000000
349.942044,10042.009600,-235.359600,0.000000
349.942350,9963.556400,0.000000,0.000000
349.942656,10042.009600,156.906400,0.000000
349.942961,9963.556400,0.000000,0.000000
349.943267,10042.009600,0.000000,0.000000
349.943572,10042.009600,0.000000,-156.906400
349.943878,10042.009600,0.000000,0.000000
349.944184,10042.009600,0.000000,-627.625600
349.944489,10042.009600,0.000000,0.000000
349.944795,9885.103200,0.000000,0.000000
349.945101,10042.009600,0.000000,0.000000
349.945406,10042.009600,-235.359600,0.000000
349.945712,10042.009600,0.000000,0.000000
349.946017,10591.182000,0.000000,-313.812800
349.946323,10120.462800,0.000000,-156.906400
349.946629,10042.009600,0.000000,0.000000
349.946934,10042.009600,-156.906400,0.000000
349.947240,9885.103200,0.000000,0.000000
349.947546,10198.916000,0.000000,-784.532000
349.947851,9963.556400,0.000000,0.000000
349.948157,10042.009600,0.000000,0.000000
349.948462,9885.103200,0.000000,0.000000
349.948768,9885.103200,0.000000,0.000000
349.949074,10120.462800,78.453200,706.078800
349.949379,9806.650000,0.000000,0.000000
349.949685,9885.103200,0.000000,-156.906400
349.949991,10042.009600,0.000000,0.000000
349.950296,10042.009600,0.000000,0.000000
349.950602,10042.009600,-549.172400,78.453200
349.950907,10042.009600,-235.359600,0.000000
349.951213,10042.009600,-156.906400,0.000000
349.951519,10042.009600,0.000000,0.000000
349.951824,10042.009600,0.000000,0.000000
349.952130,9806.650000,-549.172400,156.906400
349.952436,8943.664800,-78.453200,0.000000
349.952741,10042.009600,0.000000,-78.453200
349.953047,10042.009600,0.000000,0.000000
349.953352,9100.571200,-78.453200,235.359600
349.953658,10434.275600,-1019.891600,78.453200
349.953964,10042.009600,-235.359600,156.906400
349.954269,10042.009600,78.453200,862.985200
349.954575,9885.103200,-156.906400,0.000000
349.954880,9963.556400,0.000000,0.000000
349.955186,10042.009600,0.000000,0.000000
349.955492,10277.369200,78.453200,-235.359600
349.955797,9885.103200,0.000000,78.453200
349.956103,10042.009600,0.000000,0.000000
349.956409,10042.009600,-156.906400,0.000000
349.956714,9963.556400,0.000000,0.000000
349.957020,10434.275600,-313.812800,-392.266000
349.957325,9885.103200,0.000000,0.000000
349.957631,10042.009600,-156.906400,0.000000
349.957937,10120.462800,-156.906400,0.000000
349.958242,10042.009600,78.453200,0.000000
349.958548,10355.822400,-627.625600,-235.359600
349.958854,10042.009600,-235.359600,78.453200
349.959159,9885.103200,0.000000,0.000000
349.959465,9885.103200,0.000000,0.000000
349.959770,9806.650000,0.000000,0.000000
349.960076,10042.009600,0.000000,0.000000
349.960382,9885.103200,0.000000,156.906400
349.960687,10042.009600,-156.906400,-156.906400
349.960993,9885.103200,-235.359600,0.000000
349.961299,9963.556400,0.000000,-235.359600
349.961604,9963.556400,78.453200,-627.625600
349.961910,10042.009600,0.000000,0.000000
349.962215,9963.556400,0.000000,0.000000
349.962521,9963.556400,0.000000,235.359600
349.962827,9885.103200,0.000000,0.000000
349.963132,10042.009600,0.000000,0.000000
349.963438,10042.009600,392.266000,-156.906400
349.963744,9885.103200,0.000000,0.000000
349.964049,9728.196800,0.000000,0.000000
349.964355,10042.009600,0.000000,0.000000
349.964660,9963.556400,0.000000,0.000000
349.964966,10355.822400,0.000000,0.000000
349.965272,9963.556400,0.000000,0.000000
349.965577,9885.103200,0.000000,0.000000
349.965883,9885.103200,0.000000,0.000000
349.966189,10042.009600,0.000000,0.000000
349.966494,10042.009600,156.906400,-392.266000
349.966800,9963.556400,78.453200,78.453200
349.967105,9885.103200,0.000000,0.000000
349.967411,10042.009600,0.000000,0.000000
349.967717,10042.009600,0.000000,0.000000
349.968022,9728.196800,0.000000,0.000000
349.968328,10042.009600,0.000000,0.000000
349.968634,9963.556400,0.000000,0.000000
349.968939,9963.556400,0.000000,0.000000
349.969245,9885.103200,78.453200,0.000000
349.969550,10120.462800,313.812800,-392.266000
349.969856,10042.009600,78.453200,0.000000
349.970162,10042.009600,0.000000,0.000000
349.970467,10434.275600,78.453200,156.906400
349.970773,9806.650000,0.000000,78.453200
349.971078,10748.088400,392.266000,0.000000
349.971384,10042.009600,392.266000,0.000000
349.971690,9963.556400,0.000000,78.453200
349.971995,10198.916000,0.000000,0.000000
349.972301,9806.650000,0.000000,0.000000
349.972607,10120.462800,78.453200,-392.266000
349.972912,10042.009600,78.453200,0.000000
349.973218,10042.009600,0.000000,0.000000
349.973523,10042.009600,78.453200,0.000000
349.973829,9806.650000,0.000000,0.000000
349.974135,10042.009600,549.172400,0.000000
349.974440,9728.196800,235.359600,156.906400
349.974746,9963.556400,0.000000,0.000000
349.975052,9963.556400,156.906400,0.000000
349.975357,10042.009600,0.000000,0.000000
349.975663,10120.462800,78.453200,0.000000
349.975968,10120.462800,156.906400,156.906400
349.976274,10042.009600,0.000000,0.000000
349.976580,10042.009600,78.453200,-313.812800
349.976885,10042.009600,78.453200,0.000000
349.977191,10042.009600,0.000000,0.000000
349.977497,9963.556400,0.000000,0.000000
349.977802,9963.556400,78.453200,0.000000
349.978108,9963.556400,0.000000,0.000000
349.978413,9963.556400,235.359600,0.000000
349.978719,10120.462800,0.000000,0.000000
349.979025,10042.009600,156.906400,0.000000
349.979330,10042.009600,0.000000,0.000000
349.979636,9963.556400,0.000000,0.000000
349.979942,9963.556400,78.453200,0.000000
349.980247,9963.556400,78.453200,0.000000
349.980553,9649.743600,-392.266000,0.000000
349.980858,9885.103200,235.359600,0.000000
349.981164,9963.556400,0.000000,78.453200
349.981470,9963.556400,313.812800,0.000000
349.981775,9963.556400,0.000000,0.000000
349.982081,9885.103200,78.453200,78.453200
349.982387,9885.103200,156.906400,-392.266000
349.982692,10042.009600,156.906400,0.000000
349.982998,10042.009600,156.906400,0.000000
349.983303,9963.556400,313.812800,0.000000
349.983609,9963.556400,78.453200,0.000000
349.983915,9963.556400,392.266000,-470.719200
349.984220,10042.009600,78.453200,0.000000
349.984526,9885.103200,235.359600,0.000000
349.984832,10042.009600,0.000000,156.906400
349.985137,10042.009600,78.453200,78.453200
349.985443,9963.556400,0.000000,549.172400
349.985748,10042.009600,156.906400,0.000000
349.986054,10042.009600,0.000000,0.000000
349.986360,9885.103200,235.359600,0.000000
349.986665,9963.556400,78.453200,0.000000
349.986971,10042.009600,549.172400,78.453200
349.987276,10120.462800,0.000000,0.000000
349.987582,10042.009600,0.000000,0.000000
349.987888,10042.009600,78.453200,0.000000
349.988193,9963.556400,0.000000,0.000000
349.988499,9963.556400,-1098.344800,78.453200
349.988805,10120.462800,549.172400,-392.266000
349.989110,9414.384000,0.000000,1176.798000
349.989416,11218.807600,-235.359600,235.359600
349.989721,10042.009600,862.985200,-156.906400
349.990027,9963.556400,392.266000,0.000000
349.990333,10434.275600,156.906400,156.906400
349.990638,10042.009600,0.000000,0.000000
349.990944,10042.009600,0.000000,0.000000
349.991250,10198.916000,0.000000,0.000000
349.991555,10042.009600,78.453200,0.000000
349.991861,10120.462800,0.000000,156.906400
349.992166,10042.009600,0.000000,0.000000
349.992472,9963.556400,0.000000,0.000000
349.992778,9963.556400,0.000000,0.000000
349.993083,9885.103200,0.000000,0.000000
349.993389,10355.822400,235.359600,-313.812800
349.993695,10042.009600,0.000000,0.000000
349.994000,10042.009600,0.000000,78.453200
349.994306,9963.556400,0.000000,0.000000
349.994611,10042.009600,0.000000,0.000000
349.994917,10198.916000,156.906400,156.906400
349.995223,10042.009600,78.453200,0.000000
349.995528,9806.650000,78.453200,0.000000
349.995834,9963.556400,78.453200,0.000000
349.996140,9963.556400,0.000000,0.000000
349.996445,9963.556400,0.000000,-470.719200
349.996751,10042.009600,0.000000,0.000000
349.997056,10042.009600,0.000000,0.000000
349.997362,10042.009600,0.000000,78.453200
349.997668,9885.103200,0.000000,0.000000
349.997973,9806.650000,392.266000,549.172400
349.998279,9963.556400,0.000000,0.000000
349.998585,10042.009600,0.000000,78.453200
349.998890,9963.556400,0.000000,78.453200
349.999196,9963.556400,0.000000,0.000000
349.999501,9963.556400,156.906400,0.000000
349.999807,9571.290400,0.000000,0.000000
350.000113,9885.103200,0.000000,0.000000
350.000418,10042.009600,78.453200,0.000000
350.000724,9885.103200,78.453200,0.000000
350.001030,10042.009600,0.000000,156.906400
350.001335,9885.103200,0.000000,549.172400
350.001641,9963.556400,0.000000,0.000000
350.001946,10042.009600,78.453200,78.453200
350.002252,9806.650000,0.000000,0.000000
350.002558,9806.650000,156.906400,0.000000
350.002863,10120.462800,0.000000,156.906400
350.003169,9885.103200,0.000000,0.000000
350.003474,9963.556400,0.000000,78.453200
350.003780,10042.009600,0.000000,0.000000
350.004086,9885.103200,-156.906400,0.000000
350.004391,10198.916000,0.000000,78.453200
350.004697,10042.009600,0.000000,0.000000
350.005003,10042.009600,0.000000,0.000000
350.005308,10120.462800,0.000000,0.000000
350.005614,9806.650000,78.453200,0.000000
350.005919,10277.369200,78.453200,313.812800
350.006225,10198.916000,0.000000,78.453200
350.006531,10042.009600,0.000000,-156.906400
350.006836,9885.103200,0.000000,0.000000
350.007142,9414.384000,235.359600,0.000000
350.007448,9728.196800,0.000000,-78.453200
350.007753,10355.822400,78.453200,0.000000
350.008059,9257.477600,0.000000,0.000000
350.008364,9806.650000,156.906400,156.906400
350.008670,9963.556400,156.906400,0.000000
350.008976,9885.103200,0.000000,0.000000
350.009281,10042.009600,0.000000,0.000000
350.009587,9885.103200,0.000000,0.000000
350.009893,10042.009600,0.000000,0.000000
350.010198,9963.556400,78.453200,78.453200
350.010504,10042.009600,0.000000,0.000000
350.010809,10042.009600,0.000000,1019.891600
350.011115,10042.009600,156.906400,78.453200
350.011421,9963.556400,0.000000,0.000000
350.011726,10120.462800,0.000000,0.000000
350.012032,9963.556400,0.000000,0.000000
350.012338,9963.556400,0.000000,0.000000
350.012643,9728.196800,0.000000,0.000000
350.012949,9963.556400,78.453200,0.000000
350.013254,9963.556400,0.000000,0.000000
350.013560,9963.556400,0.000000,0.000000
350.013866,9885.103200,0.000000,0.000000
350.014171,9492.837200,706.078800,235.359600
350.014477,9806.650000,0.000000,0.000000
350.014783,9963.556400,0.000000,0.000000
350.015088,9963.556400,0.000000,0.000000
350.015394,10042.009600,0.000000,0.000000
350.015699,10198.916000,-156.906400,-470.719200
350.016005,10042.009600,0.000000,392.266000
350.016311,10042.009600,0.000000,0.000000
350.016616,10042.009600,0.000000,0.000000
350.016922,9806.650000,0.000000,78.453200
350.017228,9649.743600,78.453200,0.000000
350.017533,10120.462800,0.000000,627.625600
350.017839,10042.009600,0.000000,0.000000
350.018144,10042.009600,0.000000,0.000000
350.018450,10042.009600,0.000000,0.000000
350.018756,10042.009600,0.000000,0.000000
350.019061,10355.822400,-235.359600,313.812800
350.019367,10120.462800,0.000000,0.000000
350.019672,10042.009600,0.000000,0.000000
350.019978,10042.009600,0.000000,0.000000
350.020284,9649.743600,-1882.876800,706.078800
350.020589,10042.009600,0.000000,235.359600
350.020895,9257.477600,0.000000,627.625600
350.021201,9963.556400,0.000000,0.000000
350.021506,9492.837200,-313.812800,313.812800
350.021812,9963.556400,0.000000,156.906400
350.022117,9885.103200,0.000000,78.453200
350.022423,10198.916000,78.453200,-235.359600
350.022729,10042.009600,-392.266000,0.000000
350.023034,9963.556400,-156.906400,0.000000
350.023340,10042.009600,-313.812800,0.000000
350.023646,9885.103200,0.000000,156.906400
350.023951,10042.009600,-156.906400,0.000000
350.024257,10120.462800,313.812800,627.625600
350.024562,10198.916000,862.985200,-78.453200
350.024868,10042.009600,156.906400,0.000000
350.025174,10042.009600,156.906400,470.719200
350.025479,10042.009600,0.000000,-78.453200
350.025785,9728.196800,0.000000,0.000000
350.026091,8943.664800,78.453200,0.000000
350.026396,9806.650000,-313.812800,-470.719200
350.026702,9728.196800,-313.812800,0.000000
350.027007,10120.462800,0.000000,78.453200
350.027313,10042.009600,0.000000,0.000000
350.027619,9414.384000,156.906400,549.172400
350.027924,10042.009600,0.000000,78.453200
350.028230,10042.009600,0.000000,0.000000
350.028536,9571.290400,0.000000,627.625600
350.028841,10042.009600,0.000000,0.000000
350.029147,10355.822400,-470.719200,0.000000
350.029452,10042.009600,392.266000,0.000000
350.029758,9571.290400,235.359600,0.000000
350.030064,10042.009600,0.000000,0.000000
350.030369,10042.009600,0.000000,0.000000
350.030675,9492.837200,-392.266000,313.812800
350.030981,10042.009600,549.172400,78.453200
350.031286,9963.556400,-235.359600,0.000000
350.031592,9571.290400,313.812800,0.000000
350.031897,10042.009600,156.906400,0.000000
350.032203,9885.103200,235.359600,0.000000
350.032509,10042.009600,0.000000,-235.359600
350.032814,9885.103200,0.000000,0.000000
350.033120,10042.009600,78.453200,0.000000
350.033425,10042.009600,0.000000,0.000000
350.033731,10042.009600,-156.906400,0.000000
350.034037,10198.916000,0.000000,470.719200
350.034342,10042.009600,0.000000,0.000000
350.034648,10042.009600,0.000000,156.906400
350.034954,9963.556400,0.000000,0.000000
350.035259,9963.556400,0.000000,0.000000
350.035565,10042.009600,0.000000,78.453200
350.035870,10120.462800,156.906400,78.453200
350.036176,10042.009600,0.000000,78.453200
350.036482,9963.556400,0.000000,0.000000
350.036787,9885.103200,0.000000,78.453200
350.037093,9885.103200,0.000000,0.000000
350.037399,10198.916000,0.000000,0.000000
350.037704,9963.556400,156.906400,0.000000
350.038010,9963.556400,0.000000,0.000000
350.038315,10042.009600,-156.906400,78.453200
350.038621,9963.556400,0.000000,0.000000
350.038927,10120.462800,0.000000,0.000000
350.039232,10277.369200,0.000000,78.453200
350.039538,10042.009600,0.000000,0.000000
350.039844,8786.758400,-78.453200,1019.891600
350.040149,9963.556400,235.359600,-235.359600
350.040455,10042.009600,78.453200,0.000000
350.040760,9728.196800,156.906400,156.906400
350.041066,10042.009600,0.000000,0.000000
350.041372,10042.009600,0.000000,0.000000
350.041677,9963.556400,0.000000,-1647.517200
350.041983,10042.009600,0.000000,0.000000
350.042289,9963.556400,0.000000,-313.812800
350.042594,9963.556400,78.453200,0.000000
350.042900,10042.009600,235.359600,549.172400
350.043205,10591.182000,-627.625600,-313.812800
350.043511,9963.556400,862.985200,-235.359600
350.043817,10042.009600,0.000000,549.172400
350.044122,10904.994800,235.359600,156.906400
350.044428,10120.462800,392.266000,0.000000
350.044734,9963.556400,0.000000,0.000000
350.045039,10042.009600,0.000000,0.000000
350.045345,9728.196800,0.000000,78.453200
350.045650,10277.369200,235.359600,0.000000
350.045956,9885.103200,0.000000,0.000000
350.046262,9885.103200,78.453200,-235.359600
350.046567,9963.556400,235.359600,-156.906400
350.046873,9885.103200,156.906400,0.000000
350.047179,10355.822400,0.000000,-235.359600
350.047484,10042.009600,78.453200,0.000000
350.047790,9885.103200,0.000000,156.906400
350.048095,9963.556400,0.000000,0.000000
350.048401,10120.462800,78.453200,78.453200
350.048707,9728.196800,78.453200,0.000000
350.049012,9963.556400,0.000000,0.000000
350.049318,9885.103200,0.000000,0.000000
350.049623,10042.009600,156.906400,-156.906400
350.049929,9963.556400,78.453200,0.000000
350.050235,10198.916000,156.906400,0.000000
350.050540,9963.556400,235.359600,0.000000
350.050846,9963.556400,78.453200,-156.906400
350.051152,9885.103200,235.359600,0.000000
350.051457,10042.009600,78.453200,0.000000
350.051763,9728.196800,313.812800,0.000000
350.052068,10042.009600,0.000000,156.906400
350.052374,9963.556400,0.000000,0.000000
350.052680,10042.009600,0.000000,0.000000
350.052985,9963.556400,0.000000,0.000000
350.053291,10042.009600,313.812800,-392.266000
350.053597,9571.290400,156.906400,78.453200
350.053902,9963.556400,78.453200,0.000000
350.054208,10120.462800,0.000000,-156.906400
350.054513,10042.009600,0.000000,0.000000
350.054819,9963.556400,0.000000,235.359600
350.055125,10042.009600,313.812800,0.000000
350.055430,10120.462800,0.000000,0.000000
350.055736,10120.462800,0.000000,0.000000
350.056042,10042.009600,0.000000,0.000000
350.056347,9963.556400,0.000000,0.000000
350.056653,10042.009600,-235.359600,78.453200
350.056958,10042.009600,0.000000,0.000000
350.057264,9963.556400,78.453200,0.000000
350.057570,10042.009600,78.453200,0.000000
350.057875,9885.103200,156.906400,0.000000
350.058181,10042.009600,313.812800,0.000000
350.058487,10042.009600,235.359600,0.000000
350.058792,10042.009600,0.000000,0.000000
350.059098,9963.556400,0.000000,0.000000
350.059403,10042.009600,78.453200,0.000000
350.059709,9885.103200,156.906400,0.000000
350.060015,10042.009600,0.000000,78.453200
350.060320,9885.103200,0.000000,0.000000
350.060626,10434.275600,156.906400,0.000000
350.060932,9806.650000,0.000000,-156.906400
350.061237,10355.822400,0.000000,78.453200
350.061543,10042.009600,-235.359600,0.000000
350.061848,9963.556400,0.000000,235.359600
350.062154,9963.556400,-627.625600,-156.906400
350.062460,9649.743600,0.000000,0.000000
350.062765,10355.822400,78.453200,-156.906400
350.063071,10042.009600,0.000000,0.000000
350.063377,9963.556400,78.453200,0.000000
350.063682,9885.103200,0.000000,0.000000
350.063988,9963.556400,78.453200,0.000000
350.064293,9963.556400,0.000000,0.000000
350.064599,10042.009600,78.453200,-235.359600
350.064905,10042.009600,0.000000,0.000000
350.065210,10042.009600,0.000000,0.000000
350.065516,10042.009600,0.000000,0.000000
350.065821,10042.009600,0.000000,0.000000
350.066127,10355.822400,0.000000,-156.906400
350.066433,10042.009600,0.000000,0.000000
350.066738,9885.103200,0.000000,78.453200
350.067044,9885.103200,78.453200,0.000000
350.067350,10042.009600,78.453200,78.453200
350.067655,10120.462800,0.000000,0.000000
350.067961,10042.009600,0.000000,0.000000
350.068266,10042.009600,0.000000,0.000000
350.068572,10042.009600,0.000000,0.000000
350.068878,9885.103200,0.000000,0.000000
350.069183,10042.009600,235.359600,-235.359600
350.069489,10042.009600,0.000000,-235.359600
350.069795,10042.009600,0.000000,0.000000
350.070100,9806.650000,0.000000,0.000000
350.070406,9728.196800,0.000000,0.000000
350.070711,10042.009600,-392.266000,0.000000
350.071017,10042.009600,78.453200,0.000000
350.071323,9885.103200,156.906400,0.000000
350.071628,9885.103200,0.000000,0.000000
350.071934,9885.103200,156.906400,0.000000
350.072240,9257.477600,627.625600,0.000000
350.072545,9963.556400,0.000000,0.000000
350.072851,9806.650000,0.000000,156.906400
350.073156,9885.103200,0.000000,0.000000
350.073462,10042.009600,0.000000,0.000000
350.073768,9963.556400,0.000000,0.000000
350.074073,10042.009600,0.000000,0.000000
350.074379,9963.556400,78.453200,-156.906400
350.074685,9806.650000,78.453200,0.000000
350.074990,10042.009600,78.453200,78.453200
350.075296,10512.728800,0.000000,-784.532000
350.075601,10120.462800,0.000000,0.000000
350.075907,9963.556400,0.000000,0.000000
350.076213,9963.556400,0.000000,0.000000
350.076518,10042.009600,0.000000,0.000000
350.076824,9885.103200,156.906400,0.000000
350.077130,10042.009600,0.000000,78.453200
350.077435,9963.556400,0.000000,0.000000
350.077741,9963.556400,0.000000,78.453200
350.078046,10042.009600,0.000000,0.000000
350.078352,9963.556400,0.000000,156.906400
350.078658,9100.571200,549.172400,1176.798000
350.078963,10042.009600,78.453200,-156.906400
350.079269,9885.103200,313.812800,78.453200
350.079575,10277.369200,156.906400,0.000000
350.079880,9963.556400,-235.359600,0.000000
350.080186,9885.103200,0.000000,235.359600
350.080491,10355.822400,0.000000,-392.266000
350.080797,9885.103200,0.000000,78.453200
350.081103,9963.556400,0.000000,0.000000
350.081408,10042.009600,0.000000,0.000000
350.081714,10355.822400,-235.359600,0.000000
350.082019,10042.009600,0.000000,0.000000
350.082325,9963.556400,0.000000,0.000000
350.082631,9963.556400,-235.359600,0.000000
350.082936,9963.556400,0.000000,0.000000
350.083242,9963.556400,0.000000,78.453200
350.083548,9885.103200,78.453200,0.000000
350.083853,10042.009600,0.000000,0.000000
350.084159,10042.009600,0.000000,0.000000
350.084464,10042.009600,0.000000,0.000000
350.084770,9806.650000,0.000000,156.906400
350.085076,10198.916000,0.000000,0.000000
350.085381,10042.009600,0.000000,0.000000
350.085687,9963.556400,0.000000,0.000000
350.085993,10042.009600,0.000000,0.000000
350.086298,9963.556400,0.000000,156.906400
350.086604,9728.196800,78.453200,470.719200
350.086909,10042.009600,0.000000,0.000000
350.087215,9806.650000,0.000000,0.000000
350.087521,9885.103200,78.453200,0.000000
350.087826,9885.103200,0.000000,0.000000
350.088132,10198.916000,-941.438400,0.000000
350.088438,10042.009600,0.000000,0.000000
350.088743,9806.650000,0.000000,78.453200
350.089049,9963.556400,0.000000,0.000000
350.089354,9963.556400,0.000000,0.000000
350.089660,10434.275600,-235.359600,0.000000
350.089966,9885.103200,78.453200,0.000000
350.090271,9885.103200,0.000000,0.000000
350.090577,10120.462800,0.000000,0.000000
350.090883,9885.103200,0.000000,0.000000
350.091188,10042.009600,156.906400,235.359600
350.091494,9885.103200,0.000000,0.000000
350.091799,9963.556400,0.000000,0.000000
350.092105,9963.556400,0.000000,0.000000
350.092411,10042.009600,78.453200,0.000000
350.092716,10042.009600,-156.906400,0.000000
350.093022,10042.009600,0.000000,0.000000
350.093328,9963.556400,0.000000,0.000000
350.093633,9963.556400,0.000000,78.453200
350.093939,10042.009600,0.000000,0.000000
350.094244,9885.103200,78.453200,0.000000
350.094550,10120.462800,0.000000,235.359600
350.094856,10042.009600,0.000000,0.000000
350.095161,9963.556400,0.000000,0.000000
350.095467,10042.009600,0.000000,0.000000
350.095772,9963.556400,0.000000,235.359600
350.096078,10198.916000,0.000000,470.719200
350.096384,9728.196800,0.000000,78.453200
350.096689,9414.384000,-78.453200,-78.453200
350.096995,9728.196800,0.000000,78.453200
350.097301,10042.009600,549.172400,-706.078800
350.097606,9492.837200,0.000000,1019.891600
350.097912,10277.369200,78.453200,78.453200
350.098217,10042.009600,1176.798000,-156.906400
