##drops=0,overflows=0,time_per_sample=0.000305586,start_range=0.000060,end_range=0.000029
#time,accel_x,accel_y,accel_z
352.121626,9963.556400,0.000000,0.000000
352.121932,10120.462800,2353.596000,-2275.142800
352.122238,9963.556400,2510.502400,-2039.783200
352.122543,10198.916000,2353.596000,-1882.876800
352.122849,10042.009600,2196.689600,-2196.689600
352.123154,10042.009600,2510.502400,-2432.049200
352.123460,10277.369200,2510.502400,-3687.300400
352.123766,9885.103200,2824.315200,-3295.034400
352.124071,9885.103200,2824.315200,-3138.128000
352.124377,10120.462800,2588.955600,-3373.487600
352.124682,10120.462800,2510.502400,-3530.394000
352.124988,9963.556400,2510.502400,-3844.206800
352.125293,10120.462800,2510.502400,-3295.034400
352.125599,10120.462800,2510.502400,-3138.128000
352.125905,10355.822400,2824.315200,-3687.300400
352.126210,10120.462800,2745.862000,-3765.753600
352.126516,9649.743600,3530.394000,-4158.019600
352.126821,9885.103200,3373.487600,-4393.379200
352.127127,9492.837200,2981.221600,-4393.379200
352.127433,9571.290400,2588.955600,-4471.832400
352.127738,9885.103200,2510.502400,-4158.019600
352.128044,9728.196800,2510.502400,-4314.926000
352.128349,9963.556400,2745.862000,-3844.206800
352.128655,10042.009600,2745.862000,-3608.847200
352.128961,9963.556400,2353.596000,-3059.674800
352.129266,10042.009600,3373.487600,-2902.768400
352.129572,10042.009600,3216.581200,-3373.487600
352.129877,10277.369200,2824.315200,-2745.862000
352.130183,10042.009600,2824.315200,-2745.862000
352.130488,9885.103200,2745.862000,-3138.128000
352.130794,9728.196800,2667.408800,-3687.300400
352.131100,9806.650000,2510.502400,-3530.394000
352.131405,9963.556400,2510.502400,-3922.660000
352.131711,9571.290400,2824.315200,-4001.113200
352.132016,9492.837200,2588.955600,-4001.113200
352.132322,9806.650000,2667.408800,-3138.128000
352.132628,10042.009600,2667.408800,-2588.955600
352.132933,10591.182000,2667.408800,-3608.847200
352.133239,10120.462800,2510.502400,-2196.689600
352.133544,9963.556400,2275.142800,-1019.891600
352.133850,10748.088400,1490.610800,-1333.704400
352.134155,10355.822400,2196.689600,-1569.064000
352.134461,10355.822400,1804.423600,-2196.689600
352.134767,10042.009600,2510.502400,-1804.423600
352.135072,9885.103200,2432.049200,-2510.502400
352.135378,10120.462800,2196.689600,-2510.502400
352.135683,10042.009600,2510.502400,-2745.862000
352.135989,9728.196800,2824.315200,-2510.502400
352.136295,9885.103200,2039.783200,-2118.236400
352.136600,9728.196800,1804.423600,-1490.610800
352.136906,9885.103200,1333.704400,-1176.798000
352.137211,9806.650000,1333.704400,-1255.251200
352.137517,9885.103200,1490.610800,-1333.704400
352.137823,10042.009600,1490.610800,-1961.330000
352.138128,9571.290400,1961.330000,-2745.862000
352.138434,9728.196800,2196.689600,-3295.034400
352.138739,9649.743600,2510.502400,-3373.487600
352.139045,9806.650000,2196.689600,-2588.955600
352.139350,10277.369200,1725.970400,-1804.423600
352.139656,10434.275600,1176.798000,-784.532000
352.139962,10434.275600,627.625600,0.000000
352.140267,10355.822400,470.719200,706.078800
352.140573,10591.182000,862.985200,941.438400
352.140878,10512.728800,549.172400,549.172400
352.141184,10591.182000,1725.970400,-235.359600
352.141490,10042.009600,1961.330000,-1098.344800
352.141795,9492.837200,1804.423600,-2039.783200
352.142101,10512.728800,2039.783200,-2039.783200
352.142406,9728.196800,2039.783200,-2432.049200
352.142712,9963.556400,1647.517200,-1412.157600
352.143017,9885.103200,706.078800,-862.985200
352.143323,10198.916000,1176.798000,-392.266000
352.143629,10042.009600,1255.251200,0.000000
352.143934,9806.650000,1725.970400,0.000000
352.144240,9728.196800,1804.423600,-313.812800
352.144545,10042.009600,1804.423600,0.000000
352.144851,9649.743600,1647.517200,-549.172400
352.145157,9571.290400,1490.610800,-1019.891600
352.145462,9806.650000,2196.689600,-1098.344800
352.145768,10277.369200,1255.251200,-1490.610800
352.146073,9492.837200,941.438400,-1176.798000
352.146379,9806.650000,392.266000,-1098.344800
352.146684,9885.103200,549.172400,-784.532000
352.146990,9728.196800,1019.891600,-156.906400
352.147296,9806.650000,784.532000,392.266000
352.147601,10120.462800,862.985200,313.812800
352.147907,10512.728800,1569.064000,470.719200
352.148212,9963.556400,1412.157600,0.000000
352.148518,9963.556400,1333.704400,-313.812800
352.148824,10042.009600,1255.251200,-706.078800
352.149129,10042.009600,941.438400,-1333.704400
352.149435,9492.837200,1098.344800,-1725.970400
352.149740,9806.650000,549.172400,-1569.064000
352.150046,9649.743600,627.625600,-1333.704400
352.150352,9571.290400,1176.798000,-706.078800
352.150657,9806.650000,235.359600,-235.359600
352.150963,9963.556400,0.000000,706.078800
352.151268,10591.182000,0.000000,470.719200
352.151574,9414.384000,549.172400,706.078800
352.151879,10120.462800,313.812800,235.359600
352.152185,9963.556400,862.985200,-627.625600
352.152491,10042.009600,1098.344800,-78.453200
352.152796,10904.994800,0.000000,-706.078800
352.153102,9492.837200,470.719200,-784.532000
352.153407,10277.369200,0.000000,-549.172400
352.153713,9728.196800,0.000000,-313.812800
352.154019,9728.196800,0.000000,-470.719200
352.154324,9806.650000,235.359600,0.000000
352.154630,10042.009600,313.812800,0.000000
352.154935,9257.477600,-156.906400,235.359600
352.155241,9414.384000,235.359600,156.906400
352.155546,10983.448000,392.266000,-156.906400
352.155852,9492.837200,0.000000,-235.359600
352.156158,10120.462800,0.000000,-313.812800
352.156463,10198.916000,78.453200,-235.359600
352.156769,9492.837200,549.172400,-706.078800
352.157074,9963.556400,313.812800,-392.266000
352.157380,9414.384000,235.359600,-470.719200
352.157686,10120.462800,235.359600,0.000000
352.157991,10042.009600,0.000000,235.359600
352.158297,9728.196800,862.985200,392.266000
352.158602,10120.462800,549.172400,0.000000
352.158908,9885.103200,235.359600,313.812800
352.159214,10120.462800,706.078800,235.359600
352.159519,10277.369200,313.812800,156.906400
352.159825,9885.103200,235.359600,470.719200
352.160130,10355.822400,470.719200,862.985200
352.160436,9649.743600,470.719200,-313.812800
352.160741,9649.743600,235.359600,0.000000
352.161047,10042.009600,78.453200,0.000000
352.161353,10120.462800,313.812800,0.000000
352.161658,10120.462800,156.906400,156.906400
352.161964,9963.556400,313.812800,392.266000
352.162269,10042.009600,392.266000,313.812800
352.162575,10120.462800,470.719200,470.719200
352.162881,9806.650000,862.985200,862.985200
352.163186,9885.103200,784.532000,0.000000
352.163492,9806.650000,862.985200,-470.719200
352.163797,9963.556400,706.078800,-235.359600
352.164103,10277.369200,392.266000,-313.812800
352.164408,10120.462800,627.625600,156.906400
352.164714,9649.743600,392.266000,235.359600
352.165020,10355.822400,78.453200,470.719200
352.165325,10120.462800,0.000000,313.812800
352.165631,9649.743600,235.359600,0.000000
352.165936,9728.196800,470.719200,-78.453200
352.166242,10042.009600,392.266000,-470.719200
352.166548,9885.103200,784.532000,0.000000
352.166853,9963.556400,235.359600,235.359600
352.167159,10042.009600,0.000000,392.266000
352.167464,10277.369200,-156.906400,470.719200
352.167770,10042.009600,-313.812800,0.000000
352.168076,9335.930800,78.453200,0.000000
352.168381,9963.556400,-392.266000,-313.812800
352.168687,9963.556400,-627.625600,-313.812800
352.168992,9806.650000,549.172400,-235.359600
352.169298,10434.275600,0.000000,784.532000
352.169603,9414.384000,549.172400,78.453200
352.169909,10355.822400,0.000000,-78.453200
352.170215,9963.556400,-549.172400,0.000000
352.170520,9649.743600,-706.078800,0.000000
352.170826,10042.009600,-1255.251200,-392.266000
352.171131,10277.369200,0.000000,235.359600
352.171437,10120.462800,-470.719200,313.812800
352.171743,10042.009600,-313.812800,549.172400
352.172048,10355.822400,-549.172400,784.532000
352.172354,10355.822400,-392.266000,470.719200
352.172659,9963.556400,470.719200,235.359600
352.172965,9728.196800,-313.812800,0.000000
352.173270,10277.369200,1098.344800,313.812800
352.173576,9963.556400,156.906400,-862.985200
352.173882,10042.009600,-313.812800,-392.266000
352.174187,10983.448000,-156.906400,549.172400
352.174493,10042.009600,-1255.251200,0.000000
352.174798,10042.009600,-313.812800,0.000000
352.175104,10355.822400,-627.625600,78.453200
352.175410,10042.009600,-392.266000,0.000000
352.175715,9571.290400,627.625600,0.000000
352.176021,9649.743600,156.906400,-470.719200
352.176326,10042.009600,235.359600,-313.812800
352.176632,10198.916000,235.359600,78.453200
352.176938,9963.556400,235.359600,-235.359600
352.177243,10355.822400,313.812800,627.625600
352.177549,10042.009600,-313.812800,-313.812800
352.177854,10042.009600,235.359600,-313.812800
352.178160,9885.103200,0.000000,0.000000
352.178465,10120.462800,-470.719200,235.359600
352.178771,10198.916000,0.000000,392.266000
352.179077,9963.556400,0.000000,0.000000
352.179382,9728.196800,-156.906400,156.906400
352.179688,10120.462800,156.906400,0.000000
352.179993,9728.196800,156.906400,-235.359600
352.180299,9963.556400,235.359600,0.000000
352.180605,10355.822400,156.906400,313.812800
352.180910,10355.822400,0.000000,313.812800
352.181216,9963.556400,-470.719200,235.359600
352.181521,10042.009600,-313.812800,78.453200
352.181827,10042.009600,-392.266000,78.453200
352.182132,10042.009600,0.000000,549.172400
352.182438,9806.650000,-470.719200,313.812800
352.182744,10042.009600,-235.359600,0.000000
352.183049,9963.556400,0.000000,235.359600
352.183355,9885.103200,-313.812800,0.000000
352.183660,10042.009600,-862.985200,-313.812800
352.183966,9885.103200,0.000000,313.812800
352.184272,9963.556400,-706.078800,0.000000
352.184577,9728.196800,-392.266000,78.453200
352.184883,9963.556400,-313.812800,0.000000
352.185188,9728.196800,-627.625600,0.000000
352.185494,9963.556400,-392.266000,78.453200
352.185800,9806.650000,-313.812800,0.000000
352.186105,10198.916000,-862.985200,0.000000
352.186411,10198.916000,-470.719200,0.000000
352.186716,10591.182000,0.000000,0.000000
352.187022,10277.369200,235.359600,0.000000
352.187327,9100.571200,-392.266000,0.000000
352.187633,11218.807600,0.000000,-156.906400
352.187939,10748.088400,706.078800,-78.453200
352.188244,9335.930800,0.000000,470.719200
352.188550,8551.398800,-784.532000,0.000000
352.188855,9806.650000,-627.625600,549.172400
352.189161,10512.728800,-1176.798000,392.266000
352.189467,10042.009600,0.000000,470.719200
352.189772,10042.009600,-784.532000,470.719200
352.190078,10277.369200,0.000000,0.000000
352.190383,9806.650000,0.000000,-313.812800
352.190689,9728.196800,-156.906400,-156.906400
352.190994,9806.650000,0.000000,-156.906400
352.191300,9963.556400,-784.532000,-156.906400
352.191606,10198.916000,-470.719200,470.719200
352.191911,10355.822400,313.812800,-235.359600
352.192217,9963.556400,235.359600,-235.359600
352.192522,9649.743600,0.000000,313.812800
352.192828,9885.103200,-235.359600,392.266000
352.193134,9649.743600,-627.625600,549.172400
352.193439,10591.182000,-627.625600,549.172400
352.193745,9492.837200,-313.812800,0.000000
352.194050,10198.916000,0.000000,0.000000
352.194356,9885.103200,-235.359600,0.000000
352.194662,10277.369200,0.000000,0.000000
352.194967,10042.009600,-313.812800,313.812800
352.195273,9885.103200,-156.906400,78.453200
352.195578,9728.196800,78.453200,0.000000
352.195884,10042.009600,156.906400,235.359600
352.196189,9571.290400,-470.719200,235.359600
352.196495,9728.196800,235.359600,941.438400
352.196801,10120.462800,-313.812800,156.906400
352.197106,10042.009600,0.000000,392.266000
352.197412,9571.290400,0.000000,0.000000
352.197717,10042.009600,78.453200,0.000000
352.198023,10042.009600,-706.078800,156.906400
352.198329,9963.556400,313.812800,0.000000
352.198634,9806.650000,235.359600,0.000000
352.198940,10042.009600,-235.359600,78.453200
352.199245,10042.009600,0.000000,470.719200
352.199551,10120.462800,-392.266000,862.985200
352.199856,9885.103200,0.000000,392.266000
352.200162,10042.009600,0.000000,470.719200
352.200468,9806.650000,0.000000,313.812800
352.200773,10042.009600,0.000000,313.812800
352.201079,10042.009600,0.000000,156.906400
352.201384,9728.196800,0.000000,470.719200
352.201690,9728.196800,-392.266000,78.453200
352.201996,10120.462800,-313.812800,0.000000
352.202301,10042.009600,-470.719200,392.266000
352.202607,9649.743600,-392.266000,392.266000
352.202912,10355.822400,235.359600,78.453200
352.203218,9963.556400,235.359600,235.359600
352.203523,9728.196800,313.812800,78.453200
352.203829,10042.009600,235.359600,0.000000
352.204135,9885.103200,235.359600,-235.359600
352.204440,9885.103200,156.906400,0.000000
352.204746,10198.916000,-313.812800,0.000000
352.205051,9963.556400,0.000000,0.000000
352.205357,9100.571200,392.266000,0.000000
352.205663,9806.650000,0.000000,0.000000
352.205968,10277.369200,156.906400,0.000000
352.206274,10669.635200,2118.236400,0.000000
352.206579,10042.009600,1255.251200,78.453200
352.206885,9335.930800,235.359600,-1176.798000
352.207191,10669.635200,156.906400,0.000000
352.207496,10277.369200,470.719200,0.000000
352.207802,9100.571200,0.000000,78.453200
352.208107,9963.556400,313.812800,0.000000
352.208413,10198.916000,313.812800,0.000000
352.208718,9806.650000,313.812800,-392.266000
352.209024,9649.743600,1098.344800,-313.812800
352.209330,10042.009600,470.719200,-470.719200
352.209635,10355.822400,941.438400,0.000000
352.209941,10120.462800,706.078800,78.453200
352.210246,9885.103200,235.359600,0.000000
352.210552,9885.103200,784.532000,0.000000
352.210858,10120.462800,784.532000,-706.078800
352.211163,10042.009600,392.266000,-549.172400
352.211469,10042.009600,470.719200,-470.719200
352.211774,9571.290400,0.000000,-549.172400
352.212080,9885.103200,0.000000,-470.719200
352.212385,10042.009600,0.000000,-549.172400
352.212691,9728.196800,78.453200,-627.625600
352.212997,9728.196800,235.359600,-627.625600
352.213302,9963.556400,78.453200,-549.172400
352.213608,10042.009600,313.812800,-235.359600
352.213913,9649.743600,470.719200,313.812800
352.214219,9963.556400,392.266000,0.000000
352.214525,9806.650000,78.453200,-156.906400
352.214830,9728.196800,78.453200,-392.266000
352.215136,10512.728800,470.719200,-156.906400
352.215441,9728.196800,313.812800,0.000000
352.215747,9963.556400,627.625600,-313.812800
352.216053,10198.916000,0.000000,-470.719200
352.216358,10042.009600,0.000000,-313.812800
352.216664,10042.009600,313.812800,-470.719200
352.216969,10042.009600,-862.985200,0.000000
352.217275,9963.556400,549.172400,-470.719200
352.217580,10198.916000,156.906400,-784.532000
352.217886,10042.009600,78.453200,-784.532000
352.218192,10042.009600,78.453200,-706.078800
352.218497,10120.462800,392.266000,-470.719200
352.218803,11061.901200,0.000000,-235.359600
352.219108,9963.556400,0.000000,-392.266000
352.219414,10512.728800,235.359600,-392.266000
352.219720,10669.635200,78.453200,0.000000
352.220025,9571.290400,392.266000,-313.812800
352.220331,9885.103200,-549.172400,-470.719200
352.220636,10042.009600,235.359600,0.000000
352.220942,10042.009600,627.625600,0.000000
352.221247,9963.556400,235.359600,-156.906400
352.221553,9806.650000,313.812800,-235.359600
352.221859,10748.088400,78.453200,-313.812800
352.222164,9649.743600,0.000000,-627.625600
352.222470,9885.103200,156.906400,-627.625600
352.222775,9335.930800,-470.719200,-392.266000
352.223081,9806.650000,235.359600,549.172400
352.223387,11218.807600,-706.078800,862.985200
352.223692,10277.369200,470.719200,313.812800
352.223998,10591.182000,627.625600,0.000000
352.224303,9414.384000,862.985200,78.453200
352.224609,10120.462800,549.172400,-470.719200
352.224915,10042.009600,392.266000,0.000000
352.225220,9963.556400,627.625600,0.000000
352.225526,9806.650000,0.000000,706.078800
352.225831,10355.822400,392.266000,392.266000
352.226137,10277.369200,156.906400,0.000000
352.226442,9885.103200,784.532000,156.906400
352.226748,9885.103200,392.266000,0.000000
352.227054,10042.009600,0.000000,78.453200
352.227359,9885.103200,0.000000,78.453200
352.227665,9728.196800,235.359600,0.000000
352.227970,9649.743600,78.453200,0.000000
352.228276,9885.103200,0.000000,0.000000
352.228582,9963.556400,235.359600,-156.906400
352.228887,9806.650000,235.359600,-235.359600
352.229193,9963.556400,0.000000,0.000000
352.229498,9649.743600,156.906400,0.000000
352.229804,9963.556400,-235.359600,313.812800
352.230109,9963.556400,0.000000,313.812800
352.230415,9806.650000,0.000000,392.266000
352.230721,9649.743600,0.000000,470.719200
352.231026,9728.196800,156.906400,235.359600
352.231332,9179.024400,235.359600,0.000000
352.231637,9963.556400,78.453200,235.359600
352.231943,9571.290400,-470.719200,0.000000
352.232249,9963.556400,0.000000,78.453200
352.232554,9728.196800,0.000000,0.000000
352.232860,9649.743600,235.359600,-470.719200
352.233165,9414.384000,784.532000,-549.172400
352.233471,9963.556400,313.812800,-313.812800
352.233777,10042.009600,392.266000,156.906400
352.234082,10198.916000,0.000000,0.000000
352.234388,10042.009600,-313.812800,235.359600
352.234693,10120.462800,-156.906400,392.266000
352.234999,10355.822400,-156.906400,706.078800
352.235304,10042.009600,235.359600,235.359600
352.235610,9885.103200,627.625600,-313.812800
352.235916,10042.009600,313.812800,-313.812800
352.236221,9963.556400,313.812800,78.453200
352.236527,10120.462800,-470.719200,156.906400
352.236832,9728.196800,-313.812800,78.453200
352.237138,9806.650000,-627.625600,0.000000
352.237444,9806.650000,-706.078800,0.000000
352.237749,9571.290400,0.000000,-470.719200
352.238055,9728.196800,0.000000,-549.172400
352.238360,9492.837200,313.812800,-313.812800
352.238666,9649.743600,0.000000,0.000000
352.238971,9885.103200,-156.906400,-313.812800
352.239277,9885.103200,627.625600,0.000000
352.239583,10120.462800,0.000000,0.000000
352.239888,9963.556400,0.000000,0.000000
352.240194,9806.650000,-392.266000,0.000000
352.240499,10042.009600,-156.906400,78.453200
352.240805,10042.009600,-392.266000,78.453200
352.241111,10355.822400,-1098.344800,235.359600
352.241416,10591.182000,-2039.783200,313.812800
352.241722,13572.403600,-392.266000,235.359600
352.242027,8394.492400,862.985200,1176.798000
352.242333,9963.556400,313.812800,392.266000
352.242639,10120.462800,706.078800,549.172400
352.242944,9885.103200,0.000000,-78.453200
352.243250,10198.916000,78.453200,-156.906400
352.243555,9492.837200,-392.266000,-156.906400
352.243861,10042.009600,-784.532000,0.000000
352.244166,10591.182000,-470.719200,-235.359600
352.244472,10042.009600,0.000000,-627.625600
352.244778,9885.103200,0.000000,-392.266000
352.245083,9728.196800,156.906400,-470.719200
352.245389,10042.009600,78.453200,0.000000
352.245694,10042.009600,-392.266000,0.000000
352.246000,10042.009600,78.453200,235.359600
352.246306,9963.556400,-235.359600,156.906400
352.246611,9649.743600,0.000000,0.000000
352.246917,10120.462800,0.000000,-235.359600
352.247222,9571.290400,-313.812800,0.000000
352.247528,9963.556400,-313.812800,78.453200
352.247833,10120.462800,-470.719200,313.812800
352.248139,9963.556400,-392.266000,235.359600
352.248445,9728.196800,-784.532000,156.906400
352.248750,9963.556400,-156.906400,470.719200
352.249056,10042.009600,0.000000,0.000000
352.249361,9728.196800,-392.266000,0.000000
352.249667,9885.103200,0.000000,-313.812800
352.249973,9806.650000,0.000000,0.000000
352.250278,9806.650000,-470.719200,0.000000
352.250584,10904.994800,0.000000,313.812800
352.250889,9963.556400,0.000000,0.000000
352.251195,10198.916000,78.453200,0.000000
352.251501,10277.369200,235.359600,-470.719200
352.251806,9963.556400,156.906400,-627.625600
352.252112,9649.743600,627.625600,313.812800
352.252417,10042.009600,-313.812800,78.453200
352.252723,10120.462800,-313.812800,313.812800
352.253028,10042.009600,-392.266000,313.812800
352.253334,10512.728800,-235.359600,549.172400
352.253640,10355.822400,0.000000,-235.359600
352.253945,10434.275600,-313.812800,78.453200
352.254251,9963.556400,0.000000,-156.906400
352.254556,10042.009600,-392.266000,0.000000
352.254862,9728.196800,-392.266000,156.906400
352.255168,10198.916000,0.000000,392.266000
352.255473,9571.290400,-235.359600,78.453200
352.255779,9806.650000,-313.812800,235.359600
352.256084,9806.650000,-235.359600,0.000000
352.256390,9963.556400,-549.172400,0.000000
352.256695,10042.009600,-470.719200,-784.532000
352.257001,10042.009600,-235.359600,0.000000
352.257307,9806.650000,0.000000,-235.359600
352.257612,9728.196800,0.000000,-156.906400
352.257918,9806.650000,0.000000,0.000000
352.258223,9885.103200,-392.266000,-392.266000
352.258529,10355.822400,0.000000,0.000000
352.258835,10198.916000,0.000000,0.000000
352.259140,10434.275600,-313.812800,313.812800
352.259446,10042.009600,-627.625600,706.078800
352.259751,10591.182000,78.453200,313.812800
352.260057,9414.384000,235.359600,78.453200
352.260362,10042.009600,0.000000,549.172400
352.260668,10277.369200,235.359600,78.453200
352.260974,10120.462800,313.812800,235.359600
352.261279,10120.462800,549.172400,0.000000
352.261585,10277.369200,941.438400,-313.812800
352.261890,10120.462800,392.266000,-235.359600
352.262196,9963.556400,470.719200,-313.812800
352.262502,9806.650000,156.906400,-392.266000
352.262807,9728.196800,313.812800,-235.359600
352.263113,9492.837200,235.359600,0.000000
352.263418,10042.009600,156.906400,0.000000
352.263724,9571.290400,-313.812800,156.906400
352.264030,9963.556400,78.453200,0.000000
352.264335,9492.837200,313.812800,0.000000
352.264641,9806.650000,470.719200,-156.906400
352.264946,9806.650000,549.172400,-235.359600
352.265252,9728.196800,470.719200,-313.812800
352.265557,9885.103200,235.359600,-313.812800
352.265863,9885.103200,0.000000,0.000000
352.266169,9728.196800,470.719200,-784.532000
352.266474,9806.650000,706.078800,-235.359600
352.266780,10042.009600,392.266000,0.000000
352.267085,9885.103200,470.719200,0.000000
352.267391,10042.009600,470.719200,0.000000
352.267697,10042.009600,470.719200,-470.719200
352.268002,10512.728800,235.359600,0.000000
352.268308,10042.009600,392.266000,78.453200
352.268613,10198.916000,392.266000,0.000000
352.268919,10355.822400,0.000000,0.000000
352.269224,9963.556400,392.266000,-235.359600
352.269530,10277.369200,784.532000,78.453200
352.269836,10355.822400,470.719200,-313.812800
352.270141,10042.009600,549.172400,-156.906400
352.270447,10120.462800,0.000000,-156.906400
352.270752,10042.009600,78.453200,0.000000
352.271058,10042.009600,0.000000,-235.359600
352.271364,10042.009600,235.359600,-235.359600
352.271669,9728.196800,784.532000,-549.172400
352.271975,10042.009600,470.719200,-784.532000
352.272280,9728.196800,470.719200,-706.078800
352.272586,10355.822400,0.000000,-549.172400
352.272892,9649.743600,0.000000,-156.906400
352.273197,10120.462800,-235.359600,-156.906400
352.273503,10277.369200,-156.906400,0.000000
352.273808,9963.556400,156.906400,-156.906400
352.274114,9728.196800,156.906400,0.000000
352.274419,10120.462800,0.000000,-392.266000
352.274725,9885.103200,0.000000,-392.266000
352.275031,9649.743600,-313.812800,0.000000
352.275336,10120.462800,-470.719200,0.000000
352.275642,10042.009600,-470.719200,0.000000
352.275947,10669.635200,-706.078800,78.453200
352.276253,10355.822400,235.359600,0.000000
352.276559,10669.635200,78.453200,235.359600
352.276864,9492.837200,0.000000,-549.172400
352.277170,10120.462800,0.000000,-313.812800
352.277475,10512.728800,1412.157600,-235.359600
352.277781,10198.916000,78.453200,313.812800
352.278086,10198.916000,-392.266000,392.266000
352.278392,10042.009600,313.812800,78.453200
352.278698,10591.182000,-627.625600,0.000000
352.279003,10277.369200,-706.078800,0.000000
352.279309,9728.196800,-784.532000,78.453200
352.279614,9963.556400,-470.719200,0.000000
352.279920,9885.103200,-235.359600,0.000000
352.280226,9963.556400,-1412.157600,156.906400
352.280531,10277.369200,-627.625600,0.000000
352.280837,9963.556400,0.000000,0.000000
352.281142,9728.196800,-235.359600,-392.266000
352.281448,11140.354400,470.719200,784.532000
352.281754,9257.477600,0.000000,-235.359600
352.282059,10042.009600,235.359600,784.532000
352.282365,10512.728800,0.000000,0.000000
352.282670,9885.103200,-235.359600,0.000000
352.282976,9728.196800,156.906400,0.000000
352.283281,10591.182000,-470.719200,392.266000
352.283587,10042.009600,-627.625600,1333.704400
352.283893,9257.477600,-470.719200,470.719200
352.284198,10042.009600,-941.438400,627.625600
352.284504,9571.290400,-470.719200,235.359600
352.284809,10277.369200,78.453200,549.172400
352.285115,9885.103200,313.812800,156.906400
352.285421,10355.822400,78.453200,392.266000
352.285726,10042.009600,156.906400,156.906400
352.286032,9885.103200,156.906400,313.812800
352.286337,9728.196800,0.000000,0.000000
352.286643,10434.275600,-549.172400,235.359600
352.286948,9806.650000,-392.266000,-392.266000
352.287254,10042.009600,-313.812800,78.453200
352.287560,9728.196800,0.000000,0.000000
352.287865,10042.009600,0.000000,156.906400
352.288171,9885.103200,392.266000,0.000000
352.288476,10198.916000,0.000000,78.453200
352.288782,9963.556400,156.906400,392.266000
352.289088,10120.462800,0.000000,470.719200
352.289393,9414.384000,-156.906400,0.000000
352.289699,9963.556400,78.453200,392.266000
352.290004,9963.556400,-235.359600,156.906400
352.290310,9885.103200,0.000000,0.000000
352.290616,9885.103200,-235.359600,313.812800
352.290921,10120.462800,-392.266000,78.453200
352.291227,10042.009600,0.000000,0.000000
352.291532,9963.556400,-235.359600,1255.251200
352.291838,10042.009600,313.812800,0.000000
352.292143,10198.916000,156.906400,-156.906400
352.292449,9885.103200,78.453200,-156.906400
352.292755,9885.103200,235.359600,-549.172400
352.293060,10042.009600,0.000000,-78.453200
352.293366,10042.009600,-392.266000,-313.812800
352.293671,10355.822400,-470.719200,-235.359600
352.293977,10042.009600,-784.532000,0.000000
352.294283,10277.369200,-470.719200,0.000000
352.294588,10042.009600,-235.359600,0.000000
352.294894,9963.556400,156.906400,313.812800
352.295199,9806.650000,-313.812800,-313.812800
352.295505,10277.369200,0.000000,-549.172400
352.295810,9100.571200,-78.453200,549.172400
352.296116,9963.556400,-1019.891600,78.453200
352.296422,9963.556400,-78.453200,0.000000
352.296727,9257.477600,-862.985200,0.000000
352.297033,9806.650000,0.000000,0.000000
352.297338,9728.196800,-235.359600,-470.719200
352.297644,10042.009600,-392.266000,-313.812800
352.297950,9649.743600,0.000000,-156.906400
352.298255,9806.650000,0.000000,-235.359600
352.298561,9414.384000,392.266000,-313.812800
352.298866,9963.556400,156.906400,-313.812800
352.299172,10120.462800,0.000000,-392.266000
352.299478,9885.103200,470.719200,-235.359600
352.299783,9100.571200,0.000000,-392.266000
352.300089,10042.009600,235.359600,-156.906400
352.300394,9885.103200,313.812800,-313.812800
352.300700,9571.290400,78.453200,-392.266000
352.301005,10277.369200,156.906400,78.453200
352.301311,9728.196800,392.266000,-156.906400
352.301617,9806.650000,0.000000,-392.266000
352.301922,9728.196800,392.266000,-235.359600
352.302228,9571.290400,0.000000,0.000000
352.302533,10042.009600,627.625600,-235.359600
352.302839,9885.103200,1255.251200,0.000000
352.303145,9728.196800,392.266000,-156.906400
352.303450,9885.103200,627.625600,0.000000
352.303756,10355.822400,156.906400,156.906400
352.304061,10042.009600,549.172400,0.000000
352.304367,9885.103200,1333.704400,78.453200
352.304672,10042.009600,313.812800,0.000000
352.304978,10120.462800,313.812800,0.000000
352.305284,9885.103200,392.266000,0.000000
352.305589,8708.305200,-156.906400,-470.719200
352.305895,9571.290400,862.985200,-941.438400
352.306200,10120.462800,549.172400,-470.719200
352.306506,9100.571200,313.812800,-392.266000
352.306812,9885.103200,78.453200,0.000000
352.307117,9649.743600,313.812800,-156.906400
352.307423,9571.290400,313.812800,0.000000
352.307728,9728.196800,156.906400,0.000000
352.308034,10512.728800,-235.359600,235.359600
352.308339,9728.196800,235.359600,-156.906400
352.308645,10042.009600,78.453200,-313.812800
352.308951,10434.275600,-313.812800,313.812800
352.309256,9885.103200,0.000000,-392.266000
352.309562,10120.462800,235.359600,-549.172400
352.309867,10042.009600,0.000000,-313.812800
352.310173,9728.196800,156.906400,0.000000
352.310479,10042.009600,78.453200,0.000000
352.310784,9885.103200,313.812800,-78.453200
352.311090,9335.930800,0.000000,0.000000
352.311395,9728.196800,-235.359600,78.453200
352.311701,10512.728800,313.812800,156.906400
352.312007,10042.009600,0.000000,0.000000
352.312312,10042.009600,627.625600,235.359600
352.312618,10042.009600,470.719200,0.000000
352.312923,10669.635200,0.000000,0.000000
352.313229,10277.369200,235.359600,-313.812800
352.313534,9885.103200,78.453200,0.000000
352.313840,9100.571200,470.719200,-784.532000
352.314146,9963.556400,0.000000,-78.453200
352.314451,9806.650000,-392.266000,0.000000
352.314757,9414.384000,-156.906400,78.453200
352.315062,9806.650000,-235.359600,235.359600
352.315368,10277.369200,235.359600,0.000000
352.315674,9963.556400,470.719200,0.000000
352.315979,10042.009600,392.266000,0.000000
352.316285,9963.556400,78.453200,0.000000
352.316590,9728.196800,-470.719200,-313.812800
352.316896,10198.916000,-156.906400,-313.812800
352.317201,10042.009600,-1333.704400,-313.812800
352.317507,9728.196800,-156.906400,-156.906400
352.317813,9571.290400,0.000000,0.000000
352.318118,9885.103200,156.906400,0.000000
352.318424,10042.009600,235.359600,0.000000
352.318729,9728.196800,706.078800,313.812800
352.319035,10042.009600,549.172400,-78.453200
352.319341,10042.009600,392.266000,0.000000
352.319646,10355.822400,313.812800,392.266000
352.319952,9963.556400,313.812800,156.906400
352.320257,10042.009600,470.719200,235.359600
352.320563,10120.462800,313.812800,392.266000
352.320869,10042.009600,156.906400,156.906400
352.321174,9649.743600,156.906400,0.000000
352.321480,10042.009600,78.453200,0.000000
352.321785,10042.009600,313.812800,0.000000
352.322091,10198.916000,78.453200,941.438400
352.322396,9806.650000,0.000000,549.172400
352.322702,10434.275600,0.000000,470.719200
352.323008,10042.009600,235.359600,392.266000
352.323313,9492.837200,78.453200,0.000000
352.323619,9728.196800,549.172400,0.000000
352.323924,10042.009600,78.453200,-156.906400
352.324230,9885.103200,0.000000,-627.625600
352.324536,9963.556400,78.453200,-313.812800
352.324841,9728.196800,0.000000,-470.719200
352.325147,9728.196800,470.719200,0.000000
352.325452,9885.103200,0.000000,-235.359600
352.325758,10042.009600,392.266000,0.000000
352.326063,9492.837200,392.266000,-235.359600
352.326369,10120.462800,235.359600,0.000000
352.326675,10120.462800,470.719200,-235.359600
352.326980,10198.916000,0.000000,156.906400
352.327286,10277.369200,392.266000,0.000000
352.327591,10277.369200,0.000000,0.000000
352.327897,10591.182000,-235.359600,156.906400
352.328203,10277.369200,156.906400,-235.359600
352.328508,10042.009600,0.000000,-392.266000
352.328814,10277.369200,0.000000,-156.906400
352.329119,9963.556400,0.000000,-156.906400
352.329425,10042.009600,156.906400,-78.453200
352.329731,10277.369200,235.359600,-392.266000
352.330036,10042.009600,78.453200,235.359600
352.330342,10120.462800,313.812800,-313.812800
352.330647,9728.196800,0.000000,-313.812800
352.330953,9885.103200,78.453200,-156.906400
352.331258,10042.009600,78.453200,0.000000
352.331564,10983.448000,313.812800,784.532000
352.331870,10198.916000,235.359600,-235.359600
352.332175,9963.556400,313.812800,-235.359600
352.332481,10277.369200,0.000000,0.000000
352.332786,9100.571200,235.359600,0.000000
352.333092,10042.009600,-470.719200,-392.266000
352.333398,10434.275600,0.000000,78.453200
352.333703,9806.650000,-156.906400,156.906400
352.334009,9963.556400,-549.172400,0.000000
352.334314,10042.009600,313.812800,78.453200
352.334620,10042.009600,-392.266000,0.000000
352.334925,10198.916000,156.906400,0.000000
352.335231,9728.196800,235.359600,0.000000
352.335537,10198.916000,0.000000,-392.266000
352.335842,9885.103200,-156.906400,0.000000
352.336148,9649.743600,0.000000,0.000000
352.336453,10120.462800,-235.359600,-156.906400
352.336759,11061.901200,-313.812800,862.985200
352.337065,9100.571200,-156.906400,-392.266000
352.337370,10355.822400,-392.266000,0.000000
352.337676,10120.462800,-392.266000,235.359600
352.337981,10042.009600,-549.172400,0.000000
352.338287,10042.009600,-470.719200,235.359600
352.338593,10512.728800,0.000000,549.172400
352.338898,10669.635200,627.625600,784.532000
352.339204,10198.916000,-470.719200,156.906400
352.339509,10669.635200,313.812800,313.812800
352.339815,9806.650000,627.625600,0.000000
352.340120,9806.650000,-235.359600,0.000000
352.340426,10042.009600,-392.266000,0.000000
352.340732,9963.556400,-1019.891600,313.812800
352.341037,9806.650000,-470.719200,313.812800
352.341343,9414.384000,-392.266000,313.812800
352.341648,9806.650000,-627.625600,0.000000
352.341954,10277.369200,0.000000,156.906400
352.342260,9963.556400,0.000000,-156.906400
352.342565,9728.196800,470.719200,0.000000
352.342871,9963.556400,-470.719200,0.000000
352.343176,9885.103200,-784.532000,549.172400
352.343482,10042.009600,-470.719200,627.625600
352.343787,10042.009600,-706.078800,549.172400
352.344093,9885.103200,-549.172400,627.625600
352.344399,9806.650000,-392.266000,0.000000
352.344704,10198.916000,0.000000,156.906400
352.345010,9963.556400,-156.906400,-156.906400
352.345315,9728.196800,78.453200,0.000000
352.345621,10042.009600,0.000000,0.000000
352.345927,10277.369200,-392.266000,235.359600
352.346232,9728.196800,0.000000,313.812800
352.346538,10355.822400,-392.266000,78.453200
352.346843,10042.009600,-862.985200,0.000000
352.347149,9728.196800,-549.172400,0.000000
352.347455,10120.462800,-549.172400,784.532000
352.347760,9963.556400,0.000000,156.906400
352.348066,10042.009600,0.000000,0.000000
352.348371,9806.650000,156.906400,0.000000
352.348677,9649.743600,-313.812800,235.359600
352.348982,9963.556400,0.000000,156.906400
352.349288,9806.650000,0.000000,0.000000
352.349594,9728.196800,-627.625600,549.172400
352.349899,10277.369200,-1098.344800,392.266000
352.350205,10277.369200,-78.453200,0.000000
352.350510,9571.290400,-78.453200,1176.798000
352.350816,11218.807600,-235.359600,156.906400
352.351122,10198.916000,78.453200,78.453200
352.351427,10434.275600,-156.906400,0.000000
352.351733,9806.650000,0.000000,-235.359600
352.352038,10042.009600,-235.359600,0.000000
352.352344,10826.541600,-392.266000,1019.891600
352.352649,10120.462800,0.000000,78.453200
352.352955,10120.462800,0.000000,0.000000
352.353261,9806.650000,392.266000,-235.359600
352.353566,9963.556400,235.359600,-392.266000
352.353872,10591.182000,-470.719200,-862.985200
352.354177,10198.916000,78.453200,-235.359600
352.354483,10120.462800,313.812800,-235.359600
352.354789,10042.009600,0.000000,0.000000
352.355094,9806.650000,0.000000,-156.906400
352.355400,10355.822400,0.000000,-313.812800
352.355705,8786.758400,0.000000,549.172400
352.356011,10120.462800,470.719200,0.000000
352.356317,9885.103200,-156.906400,-235.359600
352.356622,10434.275600,313.812800,-549.172400
352.356928,10120.462800,392.266000,-392.266000
352.357233,9885.103200,0.000000,-1019.891600
352.357539,10355.822400,470.719200,-313.812800
352.357844,9100.571200,313.812800,-313.812800
352.358150,9806.650000,78.453200,-156.906400
352.358456,10042.009600,0.000000,78.453200
352.358761,9963.556400,392.266000,313.812800
352.359067,10120.462800,235.359600,0.000000
352.359372,10198.916000,392.266000,78.453200
352.359678,10042.009600,470.719200,0.000000
352.359984,10198.916000,941.438400,0.000000
352.360289,10434.275600,627.625600,78.453200
352.360595,9728.196800,392.266000,-313.812800
352.360900,10042.009600,78.453200,-235.359600
352.361206,9728.196800,0.000000,-235.359600
352.361511,9885.103200,78.453200,0.000000
352.361817,10277.369200,-235.359600,0.000000
352.362123,9885.103200,392.266000,0.000000
352.362428,9885.103200,-156.906400,0.000000
352.362734,9728.196800,-313.812800,-156.906400
352.363039,9728.196800,-156.906400,-549.172400
352.363345,10042.009600,-784.532000,0.000000
352.363651,9806.650000,-392.266000,-313.812800
352.363956,10042.009600,-313.812800,0.000000
352.364262,9963.556400,78.453200,0.000000
352.364567,9806.650000,-78.453200,0.000000
352.364873,10277.369200,78.453200,0.000000
352.365178,10355.822400,235.359600,235.359600
352.365484,9963.556400,-392.266000,0.000000
352.365790,10042.009600,0.000000,0.000000
352.366095,10198.916000,0.000000,0.000000
352.366401,10198.916000,0.000000,0.000000
352.366706,9806.650000,78.453200,0.000000
352.367012,10512.728800,0.000000,0.000000
352.367318,10826.541600,78.453200,-313.812800
352.367623,9963.556400,0.000000,0.000000
352.367929,10042.009600,0.000000,-156.906400
352.368234,11218.807600,156.906400,0.000000
352.368540,9414.384000,235.359600,-235.359600
352.368846,10355.822400,0.000000,-313.812800
352.369151,9649.743600,313.812800,-156.906400
352.369457,9885.103200,78.453200,-235.359600
352.369762,10042.009600,392.266000,78.453200
352.370068,9806.650000,-470.719200,0.000000
352.370373,9963.556400,-392.266000,392.266000
352.370679,10120.462800,-392.266000,470.719200
352.370985,9571.290400,-392.266000,627.625600
352.371290,9649.743600,-313.812800,784.532000
352.371596,9335.930800,0.000000,0.000000
352.371901,9885.103200,78.453200,235.359600
352.372207,9728.196800,0.000000,0.000000
352.372513,9885.103200,313.812800,156.906400
352.372818,9728.196800,313.812800,0.000000
352.373124,10042.009600,78.453200,-78.453200
352.373429,9885.103200,549.172400,0.000000
352.373735,8629.852000,-941.438400,156.906400
352.374040,10434.275600,-235.359600,-235.359600
352.374346,11140.354400,313.812800,549.172400
352.374652,9257.477600,784.532000,78.453200
352.374957,10042.009600,156.906400,235.359600
352.375263,9885.103200,470.719200,0.000000
352.375568,10120.462800,549.172400,0.000000
352.375874,9885.103200,235.359600,0.000000
352.376180,10120.462800,-156.906400,-706.078800
352.376485,10434.275600,0.000000,78.453200
352.376791,9492.837200,1019.891600,-549.172400
352.377096,10198.916000,470.719200,0.000000
352.377402,10120.462800,78.453200,0.000000
352.377708,9963.556400,549.172400,313.812800
352.378013,10042.009600,-392.266000,156.906400
352.378319,9963.556400,0.000000,706.078800
352.378624,9806.650000,235.359600,235.359600
352.378930,9806.650000,235.359600,0.000000
352.379235,10042.009600,235.359600,392.266000
352.379541,10277.369200,392.266000,0.000000
352.379847,9806.650000,78.453200,-313.812800
352.380152,10042.009600,470.719200,0.000000
352.380458,9963.556400,0.000000,0.000000
352.380763,9728.196800,0.000000,0.000000
352.381069,10512.728800,392.266000,0.000000
352.381375,9963.556400,-235.359600,313.812800
352.381680,10042.009600,0.000000,156.906400
352.381986,10042.009600,78.453200,78.453200
352.382291,10042.009600,0.000000,78.453200
352.382597,9885.103200,313.812800,0.000000
352.382902,10120.462800,0.000000,0.000000
352.383208,10198.916000,313.812800,-235.359600
352.383514,10042.009600,0.000000,-313.812800
352.383819,10120.462800,313.812800,-313.812800
352.384125,10277.369200,235.359600,156.906400
352.384430,9963.556400,0.000000,78.453200
352.384736,9728.196800,78.453200,0.000000
352.385042,9728.196800,0.000000,-235.359600
352.385347,9571.290400,78.453200,0.000000
352.385653,10198.916000,78.453200,-392.266000
352.385958,10277.369200,862.985200,-392.266000
352.386264,9963.556400,392.266000,0.000000
352.386570,10355.822400,0.000000,0.000000
352.386875,9885.103200,0.000000,-78.453200
352.387181,10434.275600,0.000000,-549.172400
352.387486,10042.009600,-156.906400,-392.266000
352.387792,9649.743600,-549.172400,78.453200
352.388097,9885.103200,706.078800,78.453200
352.388403,10355.822400,549.172400,-549.172400
352.388709,10042.009600,313.812800,0.000000
352.389014,10042.009600,627.625600,313.812800
352.389320,10120.462800,392.266000,-313.812800
352.389625,9649.743600,156.906400,-549.172400
352.389931,10904.994800,313.812800,235.359600
352.390237,9571.290400,-156.906400,-392.266000
352.390542,10042.009600,-549.172400,-392.266000
352.390848,9963.556400,235.359600,-784.532000
352.391153,9806.650000,-235.359600,-470.719200
352.391459,9649.743600,78.453200,-313.812800
352.391764,9728.196800,78.453200,0.000000
352.392070,10512.728800,-549.172400,0.000000
352.392376,9649.743600,-235.359600,0.000000
352.392681,9806.650000,-235.359600,0.000000
352.392987,10042.009600,-392.266000,78.453200
352.393292,10277.369200,156.906400,235.359600
352.393598,9963.556400,-470.719200,-235.359600
352.393904,10355.822400,235.359600,78.453200
352.394209,10198.916000,-235.359600,0.000000
352.394515,10355.822400,0.000000,156.906400
352.394820,10042.009600,-235.359600,0.000000
352.395126,9963.556400,78.453200,0.000000
352.395432,9571.290400,156.906400,549.172400
352.395737,10355.822400,-392.266000,0.000000
352.396043,9885.103200,549.172400,0.000000
352.396348,10198.916000,313.812800,-156.906400
352.396654,10198.916000,-156.906400,0.000000
352.396959,9728.196800,156.906400,235.359600
352.397265,10042.009600,0.000000,0.000000
352.397571,9414.384000,0.000000,78.453200
352.397876,9649.743600,313.812800,0.000000
352.398182,10042.009600,0.000000,156.906400
352.398487,10277.369200,235.359600,0.000000
352.398793,9571.290400,-549.172400,0.000000
352.399099,10198.916000,-627.625600,78.453200
352.399404,9728.196800,-470.719200,235.359600
352.399710,9885.103200,-235.359600,313.812800
352.400015,9885.103200,156.906400,156.906400
352.400321,10198.916000,0.000000,235.359600
352.400626,10120.462800,78.453200,235.359600
352.400932,9728.196800,0.000000,78.453200
352.401238,10277.369200,78.453200,392.266000
352.401543,10042.009600,0.000000,78.453200
352.401849,10120.462800,-313.812800,470.719200
352.402154,10042.009600,0.000000,470.719200
352.402460,10277.369200,-392.266000,313.812800
352.402766,10120.462800,-235.359600,470.719200
352.403071,10355.822400,0.000000,392.266000
352.403377,10042.009600,-235.359600,156.906400
352.403682,9885.103200,-156.906400,235.359600
352.403988,9649.743600,-392.266000,-627.625600
352.404294,9179.024400,78.453200,549.172400
352.404599,9963.556400,-470.719200,0.000000
352.404905,10042.009600,-78.453200,-235.359600
352.405210,9492.837200,0.000000,549.172400
352.405516,9963.556400,-470.719200,549.172400
352.405821,9806.650000,-156.906400,78.453200
352.406127,9649.743600,-470.719200,0.000000
352.406433,10277.369200,-235.359600,156.906400
352.406738,9414.384000,0.000000,0.000000
352.407044,9728.196800,-235.359600,-470.719200
352.407349,10277.369200,0.000000,78.453200
352.407655,9963.556400,0.000000,235.359600
352.407961,10042.009600,0.000000,0.000000
352.408266,10748.088400,-235.359600,392.266000
352.408572,10042.009600,-313.812800,470.719200
352.408877,10120.462800,156.906400,392.266000
352.409183,10434.275600,0.000000,235.359600
352.409488,9806.650000,-627.625600,392.266000
352.409794,9571.290400,0.000000,313.812800
352.410100,10042.009600,-313.812800,0.000000
352.410405,10120.462800,156.906400,0.000000
352.410711,10042.009600,78.453200,-156.906400
352.411016,10198.916000,235.359600,-235.359600
352.411322,10120.462800,0.000000,-313.812800
352.411628,10042.009600,0.000000,0.000000
352.411933,9492.837200,0.000000,-784.532000
352.412239,9728.196800,0.000000,-862.985200
352.412544,9963.556400,235.359600,-627.625600
352.412850,9728.196800,0.000000,-470.719200
352.413156,9728.196800,-392.266000,-549.172400
352.413461,10120.462800,0.000000,0.000000
352.413767,9414.384000,0.000000,-392.266000
352.414072,9885.103200,0.000000,0.000000
352.414378,9963.556400,156.906400,-1176.798000
352.414683,9963.556400,0.000000,-313.812800
352.414989,10042.009600,78.453200,0.000000
352.415295,10042.009600,0.000000,78.453200
352.415600,9885.103200,-549.172400,0.000000
352.415906,10198.916000,0.000000,0.000000
352.416211,10512.728800,392.266000,0.000000
352.416517,9885.103200,0.000000,0.000000
352.416823,9963.556400,78.453200,0.000000
352.417128,9963.556400,78.453200,0.000000
352.417434,9885.103200,0.000000,-235.359600
352.417739,10277.369200,-156.906400,0.000000
352.418045,9963.556400,-392.266000,-313.812800
352.418350,9963.556400,78.453200,-313.812800
352.418656,9885.103200,313.812800,-235.359600
352.418962,9885.103200,-156.906400,-470.719200
352.419267,10277.369200,549.172400,0.000000
352.419573,9963.556400,0.000000,0.000000
352.419878,9649.743600,0.000000,0.000000
352.420184,10042.009600,-392.266000,-156.906400
352.420490,9963.556400,-156.906400,-156.906400
352.420795,9885.103200,0.000000,-313.812800
352.421101,9963.556400,-627.625600,0.000000
352.421406,10669.635200,-78.453200,549.172400
352.421712,10355.822400,-156.906400,-156.906400
352.422017,9963.556400,-313.812800,0.000000
352.422323,9414.384000,235.359600,0.000000
352.422629,10042.009600,0.000000,-78.453200
352.422934,10120.462800,-156.906400,0.000000
352.423240,9414.384000,0.000000,0.000000
352.423545,10434.275600,0.000000,156.906400
352.423851,10198.916000,0.000000,0.000000
352.424157,10355.822400,0.000000,0.000000
352.424462,10198.916000,0.000000,0.000000
352.424768,9806.650000,78.453200,0.000000
352.425073,9806.650000,0.000000,-156.906400
352.425379,10042.009600,235.359600,0.000000
352.425685,10120.462800,-313.812800,-235.359600
352.425990,10042.009600,-235.359600,0.000000
352.426296,9649.743600,0.000000,0.000000
352.426601,9885.103200,-235.359600,78.453200
352.426907,9806.650000,0.000000,78.453200
352.427212,10042.009600,0.000000,235.359600
352.427518,10120.462800,0.000000,156.906400
352.427824,9885.103200,0.000000,78.453200
352.428129,10042.009600,-235.359600,78.453200
352.428435,10042.009600,0.000000,0.000000
352.428740,9885.103200,-392.266000,470.719200
352.429046,10198.916000,313.812800,156.906400
352.429352,10042.009600,235.359600,78.453200
352.429657,9885.103200,313.812800,0.000000
352.429963,9571.290400,313.812800,0.000000
352.430268,10120.462800,78.453200,156.906400
352.430574,9885.103200,-156.906400,313.812800
352.430879,9885.103200,0.000000,470.719200
352.431185,10277.369200,0.000000,549.172400
352.431491,10120.462800,-235.359600,392.266000
352.431796,10120.462800,0.000000,156.906400
352.432102,10042.009600,-156.906400,941.438400
352.432407,10042.009600,-392.266000,235.359600
352.432713,10042.009600,0.000000,313.812800
352.433019,9963.556400,0.000000,235.359600
352.433324,10512.728800,78.453200,470.719200
352.433630,10277.369200,156.906400,392.266000
352.433935,10042.009600,78.453200,392.266000
352.434241,10277.369200,0.000000,627.625600
352.434547,10042.009600,-156.906400,627.625600
352.434852,10042.009600,-313.812800,549.172400
352.435158,9963.556400,0.000000,392.266000
352.435463,10355.822400,-392.266000,235.359600
352.435769,9885.103200,-470.719200,235.359600
352.436074,9728.196800,0.000000,0.000000
352.436380,9492.837200,0.000000,-313.812800
352.436686,9414.384000,0.000000,-627.625600
352.436991,9414.384000,392.266000,-313.812800
352.437297,10042.009600,78.453200,-313.812800
352.437602,10042.009600,313.812800,-313.812800
352.437908,9885.103200,313.812800,78.453200
352.438214,10042.009600,313.812800,-313.812800
352.438519,10120.462800,78.453200,0.000000
352.438825,10277.369200,235.359600,0.000000
352.439130,9885.103200,235.359600,78.453200
352.439436,9963.556400,-470.719200,78.453200
352.439741,9963.556400,-313.812800,78.453200
352.440047,10591.182000,78.453200,1490.610800
352.440353,10591.182000,-78.453200,1019.891600
352.440658,10277.369200,941.438400,235.359600
352.440964,9885.103200,78.453200,0.000000
352.441269,10042.009600,235.359600,941.438400
352.441575,9806.650000,549.172400,0.000000
352.441881,10120.462800,549.172400,0.000000
352.442186,9649.743600,313.812800,0.000000
352.442492,9963.556400,156.906400,78.453200
352.442797,9885.103200,0.000000,0.000000
352.443103,10198.916000,78.453200,0.000000
352.443409,9414.384000,313.812800,235.359600
352.443714,9885.103200,784.532000,-470.719200
352.444020,10591.182000,392.266000,-392.266000
352.444325,9492.837200,706.078800,-784.532000
352.444631,10277.369200,313.812800,-470.719200
352.444936,9492.837200,0.000000,-862.985200
352.445242,11061.901200,627.625600,627.625600
352.445548,9100.571200,1176.798000,-1019.891600
352.445853,10042.009600,392.266000,-706.078800
352.446159,10277.369200,549.172400,-1255.251200
352.446464,10198.916000,156.906400,-313.812800
352.446770,9728.196800,549.172400,-627.625600
352.447076,10355.822400,0.000000,-313.812800
352.447381,10120.462800,313.812800,-235.359600
352.447687,10042.009600,0.000000,-470.719200
352.447992,10042.009600,470.719200,-313.812800
352.448298,9885.103200,156.906400,-470.719200
352.448603,10042.009600,156.906400,-706.078800
352.448909,10042.009600,0.000000,-470.719200
352.449215,9806.650000,0.000000,-313.812800
352.449520,9963.556400,-235.359600,0.000000
352.449826,10591.182000,0.000000,470.719200
352.450131,9649.743600,78.453200,-235.359600
352.450437,10591.182000,78.453200,470.719200
352.450743,9022.118000,392.266000,-470.719200
352.451048,10042.009600,-235.359600,-627.625600
352.451354,9885.103200,941.438400,-235.359600
352.451659,9571.290400,0.000000,-235.359600
352.451965,10120.462800,-549.172400,1647.517200
352.452271,10355.822400,-313.812800,78.453200
352.452576,9806.650000,-1882.876800,1176.798000
352.452882,10355.822400,235.359600,-313.812800
352.453187,9885.103200,0.000000,-78.453200
352.453493,10042.009600,78.453200,0.000000
352.453798,10120.462800,0.000000,-78.453200
352.454104,10120.462800,0.000000,0.000000
352.454410,9806.650000,549.172400,78.453200
352.454715,10277.369200,-313.812800,-156.906400
352.455021,10042.009600,-706.078800,0.000000
352.455326,10042.009600,-313.812800,-235.359600
352.455632,9414.384000,-78.453200,0.000000
352.455938,10042.009600,-156.906400,0.000000
352.456243,10904.994800,392.266000,549.172400
352.456549,10042.009600,78.453200,0.000000
352.456854,10983.448000,862.985200,0.000000
352.457160,9257.477600,941.438400,0.000000
352.457465,9885.103200,-1255.251200,-470.719200
352.457771,9963.556400,78.453200,-235.359600
352.458077,9022.118000,-549.172400,235.359600
352.458382,9963.556400,-1098.344800,235.359600
352.458688,9806.650000,-78.453200,0.000000
352.458993,10042.009600,78.453200,862.985200
352.459299,9963.556400,-235.359600,1098.344800
352.459605,9963.556400,235.359600,156.906400
352.459910,9806.650000,78.453200,78.453200
352.460216,9885.103200,313.812800,313.812800
352.460521,10120.462800,156.906400,313.812800
352.460827,9728.196800,-235.359600,862.985200
352.461133,10277.369200,313.812800,549.172400
352.461438,10434.275600,0.000000,392.266000
352.461744,10120.462800,235.359600,156.906400
352.462049,10198.916000,470.719200,0.000000
352.462355,9963.556400,313.812800,313.812800
352.462660,9649.743600,-313.812800,313.812800
352.462966,10042.009600,0.000000,0.000000
352.463272,9885.103200,0.000000,313.812800
352.463577,9728.196800,-313.812800,0.000000
352.463883,9885.103200,0.000000,706.078800
352.464188,10042.009600,235.359600,0.000000
352.464494,9885.103200,-235.359600,0.000000
352.464800,9571.290400,0.000000,-313.812800
352.465105,9885.103200,0.000000,-392.266000
352.465411,10042.009600,-313.812800,-470.719200
352.465716,10355.822400,-235.359600,-313.812800
352.466022,9728.196800,-235.359600,-156.906400
352.466327,9963.556400,0.000000,-235.359600
352.466633,10434.275600,-313.812800,549.172400
352.466939,9963.556400,0.000000,78.453200
352.467244,9492.837200,706.078800,156.906400
352.467550,9649.743600,0.000000,156.906400
352.467855,10826.541600,235.359600,392.266000
352.468161,10120.462800,78.453200,0.000000
352.468467,10120.462800,470.719200,-392.266000
352.468772,10591.182000,706.078800,0.000000
352.469078,10042.009600,-470.719200,-313.812800
352.469383,10042.009600,-549.172400,-235.359600
352.469689,10042.009600,-627.625600,0.000000
352.469994,9885.103200,-156.906400,-313.812800
352.470300,10042.009600,470.719200,0.000000
352.470606,9257.477600,470.719200,-784.532000
352.470911,9414.384000,313.812800,-549.172400
352.471217,10120.462800,0.000000,-627.625600
352.471522,9649.743600,235.359600,-549.172400
352.471828,9100.571200,0.000000,0.000000
352.472134,9885.103200,156.906400,313.812800
352.472439,10198.916000,-235.359600,235.359600
352.472745,9885.103200,-1019.891600,470.719200
352.473050,9728.196800,0.000000,0.000000
352.473356,9963.556400,-313.812800,0.000000
352.473662,10198.916000,78.453200,78.453200
352.473967,9885.103200,156.906400,0.000000
352.474273,10512.728800,0.000000,78.453200
352.474578,10355.822400,78.453200,235.359600
352.474884,9963.556400,0.000000,235.359600
352.475189,10042.009600,313.812800,470.719200
352.475495,10277.369200,313.812800,78.453200
352.475801,10355.822400,235.359600,0.000000
352.476106,10042.009600,235.359600,0.000000
352.476412,9885.103200,0.000000,-78.453200
352.476717,10120.462800,392.266000,-1725.970400
352.477023,10120.462800,78.453200,-392.266000
352.477329,9885.103200,0.000000,-470.719200
352.477634,9571.290400,0.000000,-392.266000
352.477940,9806.650000,0.000000,-392.266000
352.478245,9885.103200,0.000000,-392.266000
352.478551,9649.743600,0.000000,-313.812800
352.478856,9806.650000,0.000000,-235.359600
352.479162,9571.290400,313.812800,0.000000
352.479468,11689.526800,1176.798000,313.812800
352.479773,8943.664800,627.625600,0.000000
352.480079,9571.290400,0.000000,0.000000
352.480384,10277.369200,-941.438400,392.266000
352.480690,10591.182000,706.078800,78.453200
352.480996,10198.916000,470.719200,-627.625600
352.481301,10120.462800,156.906400,156.906400
352.481607,10042.009600,78.453200,156.906400
352.481912,9806.650000,-470.719200,392.266000
352.482218,8943.664800,627.625600,-941.438400
352.482524,10042.009600,0.000000,0.000000
352.482829,10355.822400,-392.266000,-156.906400
352.483135,9571.290400,78.453200,0.000000
352.483440,10355.822400,156.906400,-235.359600
352.483746,9885.103200,78.453200,0.000000
352.484051,10277.369200,156.906400,-235.359600
352.484357,10042.009600,392.266000,-313.812800
352.484663,9963.556400,235.359600,-235.359600
352.484968,10042.009600,156.906400,0.000000
352.485274,10120.462800,313.812800,-235.359600
352.485579,9571.290400,-313.812800,-235.359600
352.485885,10591.182000,-470.719200,313.812800
352.486191,10277.369200,-549.172400,470.719200
352.486496,9728.196800,-235.359600,549.172400
352.486802,10591.182000,78.453200,549.172400
352.487107,10591.182000,-156.906400,549.172400
352.487413,9335.930800,0.000000,0.000000
352.487718,10277.369200,-627.625600,-235.359600
352.488024,10198.916000,313.812800,0.000000
352.488330,10277.369200,156.906400,0.000000
352.488635,9806.650000,-392.266000,0.000000
352.488941,9728.196800,78.453200,235.359600
352.489246,9728.196800,-313.812800,0.000000
352.489552,9885.103200,78.453200,470.719200
352.489858,9728.196800,0.000000,235.359600
352.490163,10042.009600,-235.359600,78.453200
352.490469,9649.743600,-235.359600,235.359600
352.490774,10512.728800,-392.266000,784.532000
352.491080,10277.369200,0.000000,941.438400
352.491386,10042.009600,235.359600,627.625600
352.491691,10042.009600,470.719200,156.906400
352.491997,10198.916000,313.812800,235.359600
352.492302,9806.650000,-235.359600,156.906400
352.492608,10198.916000,0.000000,862.985200
352.492913,10669.635200,0.000000,549.172400
352.493219,9885.103200,0.000000,470.719200
352.493525,9728.196800,235.359600,-392.266000
352.493830,9492.837200,-156.906400,0.000000
352.494136,10591.182000,156.906400,-313.812800
352.494441,9492.837200,1490.610800,-706.078800
352.494747,9335.930800,392.266000,-313.812800
352.495053,9492.837200,0.000000,-784.532000
352.495358,9257.477600,-1255.251200,-549.172400
352.495664,9414.384000,-313.812800,-706.078800
352.495969,9335.930800,0.000000,0.000000
352.496275,9963.556400,-235.359600,-1019.891600
352.496580,9885.103200,392.266000,-470.719200
352.496886,9885.103200,0.000000,0.000000
352.497192,10434.275600,78.453200,235.359600
352.497497,10120.462800,313.812800,313.812800
352.497803,9257.477600,706.078800,549.172400
352.498108,10042.009600,0.000000,784.532000
352.498414,10355.822400,0.000000,627.625600
352.498720,10277.369200,0.000000,313.812800
352.499025,10198.916000,0.000000,313.812800
352.499331,10591.182000,0.000000,1098.344800
352.499636,10198.916000,0.000000,470.719200
352.499942,10042.009600,-392.266000,313.812800
352.500248,10042.009600,0.000000,0.000000
352.500553,9806.650000,-235.359600,0.000000
352.500859,9728.196800,-470.719200,-313.812800
352.501164,10042.009600,0.000000,-549.172400
352.501470,9335.930800,-392.266000,-627.625600
352.501775,9885.103200,-235.359600,-235.359600
352.502081,10042.009600,-392.266000,-392.266000
352.502387,9806.650000,78.453200,-235.359600
352.502692,9728.196800,-392.266000,-313.812800
352.502998,9885.103200,156.906400,-627.625600
352.503303,9963.556400,313.812800,-784.532000
352.503609,9963.556400,313.812800,-627.625600
352.503915,9885.103200,78.453200,0.000000
352.504220,10042.009600,-156.906400,0.000000
352.504526,10042.009600,-470.719200,235.359600
352.504831,9885.103200,-313.812800,313.812800
352.505137,10042.009600,-392.266000,78.453200
352.505442,10198.916000,0.000000,235.359600
352.505748,10042.009600,0.000000,156.906400
352.506054,10042.009600,-313.812800,0.000000
352.506359,9963.556400,0.000000,78.453200
352.506665,10042.009600,-706.078800,392.266000
352.506970,10198.916000,-627.625600,549.172400
352.507276,10042.009600,0.000000,0.000000
352.507582,9963.556400,-470.719200,-235.359600
352.507887,9806.650000,0.000000,78.453200
352.508193,10120.462800,-313.812800,78.453200
352.508498,10904.994800,-156.906400,862.985200
352.508804,9179.024400,-549.172400,-313.812800
352.509110,10198.916000,-313.812800,78.453200
352.509415,10042.009600,0.000000,0.000000
352.509721,9885.103200,156.906400,0.000000
352.510026,9885.103200,549.172400,0.000000
352.510332,10120.462800,156.906400,0.000000
352.510637,9571.290400,0.000000,156.906400
352.510943,10120.462800,-156.906400,78.453200
352.511249,9649.743600,-156.906400,78.453200
352.511554,10120.462800,-392.266000,0.000000
352.511860,9414.384000,549.172400,0.000000
352.512165,9728.196800,0.000000,-392.266000
352.512471,10042.009600,0.000000,0.000000
352.512777,9649.743600,-313.812800,862.985200
352.513082,9728.196800,0.000000,549.172400
352.513388,11061.901200,549.172400,78.453200
352.513693,10042.009600,78.453200,0.000000
352.513999,10120.462800,78.453200,0.000000
352.514304,10277.369200,0.000000,156.906400
352.514610,10042.009600,-313.812800,156.906400
352.514916,10042.009600,-235.359600,392.266000
352.515221,10198.916000,-313.812800,235.359600
352.515527,10042.009600,0.000000,0.000000
352.515832,10042.009600,-235.359600,156.906400
352.516138,9806.650000,78.453200,313.812800
352.516444,9885.103200,78.453200,0.000000
352.516749,9728.196800,313.812800,-156.906400
352.517055,9963.556400,0.000000,78.453200
352.517360,9728.196800,78.453200,78.453200
352.517666,10434.275600,-392.266000,78.453200
352.517972,9885.103200,0.000000,313.812800
352.518277,10277.369200,0.000000,0.000000
352.518583,10198.916000,0.000000,0.000000
352.518888,9806.650000,156.906400,-235.359600
352.519194,10120.462800,313.812800,0.000000
352.519499,9728.196800,549.172400,-156.906400
352.519805,10042.009600,941.438400,0.000000
352.520111,10277.369200,235.359600,0.000000
352.520416,9963.556400,-313.812800,0.000000
352.520722,10042.009600,-156.906400,0.000000
352.521027,10120.462800,0.000000,-470.719200
352.521333,10120.462800,-235.359600,-706.078800
352.521639,10277.369200,0.000000,-392.266000
352.521944,9885.103200,-235.359600,-941.438400
352.522250,9806.650000,0.000000,-627.625600
352.522555,9571.290400,0.000000,-549.172400
352.522861,9885.103200,470.719200,-706.078800
352.523166,9649.743600,235.359600,-941.438400
352.523472,9963.556400,78.453200,-313.812800
352.523778,9728.196800,156.906400,0.000000
352.524083,9885.103200,0.000000,-235.359600
352.524389,10120.462800,470.719200,0.000000
352.524694,10277.369200,78.453200,627.625600
352.525000,10198.916000,0.000000,0.000000
352.525306,10042.009600,156.906400,0.000000
352.525611,10042.009600,0.000000,-156.906400
352.525917,10042.009600,156.906400,0.000000
352.526222,10042.009600,235.359600,0.000000
352.526528,9885.103200,78.453200,0.000000
352.526833,10042.009600,470.719200,-235.359600
352.527139,9806.650000,0.000000,0.000000
352.527445,9885.103200,235.359600,-156.906400
352.527750,10983.448000,156.906400,-470.719200
352.528056,10512.728800,313.812800,0.000000
352.528361,10042.009600,156.906400,-313.812800
352.528667,10355.822400,156.906400,0.000000
352.528973,9963.556400,470.719200,-235.359600
352.529278,9963.556400,78.453200,-392.266000
352.529584,9492.837200,235.359600,156.906400
352.529889,9728.196800,-78.453200,235.359600
352.530195,10198.916000,0.000000,-78.453200
352.530501,10277.369200,470.719200,0.000000
352.530806,8786.758400,235.359600,0.000000
352.531112,10277.369200,1176.798000,470.719200
352.531417,10120.462800,235.359600,0.000000
352.531723,9571.290400,156.906400,-235.359600
352.532028,9963.556400,78.453200,-392.266000
352.532334,10042.009600,78.453200,0.000000
352.532640,9963.556400,0.000000,-470.719200
352.532945,10277.369200,235.359600,0.000000
352.533251,9963.556400,156.906400,-313.812800
352.533556,10120.462800,627.625600,-392.266000
352.533862,9728.196800,313.812800,-549.172400
352.534168,9728.196800,1255.251200,-862.985200
352.534473,9885.103200,549.172400,-549.172400
352.534779,10120.462800,0.000000,0.000000
352.535084,10277.369200,156.906400,235.359600
352.535390,10198.916000,0.000000,78.453200
352.535695,10198.916000,313.812800,156.906400
352.536001,10042.009600,0.000000,313.812800
352.536307,10198.916000,0.000000,0.000000
352.536612,10277.369200,313.812800,78.453200
352.536918,11218.807600,862.985200,549.172400
352.537223,11375.714000,627.625600,78.453200
352.537529,9885.103200,1333.704400,392.266000
352.537835,10042.009600,549.172400,235.359600
352.538140,10120.462800,235.359600,78.453200
352.538446,9806.650000,-235.359600,235.359600
352.538751,9885.103200,0.000000,78.453200
352.539057,10277.369200,0.000000,392.266000
352.539363,10042.009600,0.000000,235.359600
352.539668,9963.556400,0.000000,0.000000
352.539974,9963.556400,78.453200,549.172400
352.540279,9179.024400,784.532000,-235.359600
352.540585,10042.009600,0.000000,0.000000
352.540890,9806.650000,235.359600,706.078800
352.541196,9806.650000,470.719200,0.000000
352.541502,9806.650000,78.453200,0.000000
352.541807,10277.369200,0.000000,156.906400
352.542113,9963.556400,-392.266000,470.719200
352.542418,10042.009600,-235.359600,235.359600
352.542724,10277.369200,0.000000,0.000000
352.543030,9728.196800,313.812800,-156.906400
352.543335,9885.103200,0.000000,0.000000
352.543641,9728.196800,-392.266000,-470.719200
352.543946,10042.009600,0.000000,-313.812800
352.544252,10042.009600,0.000000,-156.906400
352.544557,9885.103200,0.000000,0.000000
352.544863,9728.196800,78.453200,0.000000
352.545169,9885.103200,0.000000,235.359600
352.545474,10120.462800,0.000000,0.000000
352.545780,9806.650000,-470.719200,156.906400
352.546085,10198.916000,156.906400,78.453200
352.546391,10042.009600,0.000000,78.453200
352.546697,9885.103200,0.000000,235.359600
352.547002,10042.009600,0.000000,0.000000
352.547308,9885.103200,0.000000,0.000000
352.547613,8551.398800,156.906400,-78.453200
352.547919,10591.182000,-1019.891600,0.000000
352.548225,10277.369200,-78.453200,-156.906400
352.548530,9649.743600,78.453200,862.985200
352.548836,11218.807600,-706.078800,549.172400
352.549141,10042.009600,-156.906400,0.000000
352.549447,10042.009600,0.000000,0.000000
352.549752,9806.650000,-156.906400,-156.906400
352.550058,9885.103200,0.000000,0.000000
352.550364,9885.103200,-156.906400,0.000000
352.550669,10042.009600,-549.172400,0.000000
352.550975,9806.650000,-706.078800,0.000000
352.551280,9885.103200,-313.812800,0.000000
352.551586,9963.556400,-156.906400,0.000000
352.551892,9885.103200,0.000000,0.000000
352.552197,10042.009600,0.000000,0.000000
352.552503,9806.650000,0.000000,0.000000
352.552808,10042.009600,0.000000,-156.906400
352.553114,10042.009600,78.453200,0.000000
352.553419,10120.462800,-313.812800,156.906400
352.553725,10277.369200,0.000000,470.719200
352.554031,10042.009600,313.812800,-156.906400
352.554336,10904.994800,-392.266000,235.359600
352.554642,9100.571200,0.000000,-156.906400
352.554947,10277.369200,470.719200,0.000000
352.555253,10591.182000,0.000000,0.000000
352.555559,9492.837200,-156.906400,0.000000
352.555864,10042.009600,0.000000,0.000000
352.556170,9885.103200,-313.812800,0.000000
352.556475,9257.477600,-392.266000,-627.625600
352.556781,10042.009600,-549.172400,549.172400
352.557087,9728.196800,-235.359600,-156.906400
352.557392,9885.103200,-235.359600,0.000000
352.557698,10355.822400,-235.359600,0.000000
352.558003,9963.556400,-470.719200,0.000000
352.558309,9335.930800,-1098.344800,0.000000
352.558614,10277.369200,-784.532000,156.906400
352.558920,9728.196800,0.000000,78.453200
352.559226,10042.009600,78.453200,-235.359600
352.559531,9806.650000,862.985200,-470.719200
352.559837,10042.009600,0.000000,0.000000
352.560142,9571.290400,0.000000,156.906400
352.560448,10042.009600,-235.359600,313.812800
352.560754,10120.462800,156.906400,0.000000
352.561059,10042.009600,0.000000,156.906400
352.561365,9806.650000,235.359600,235.359600
352.561670,10120.462800,313.812800,470.719200
352.561976,10198.916000,0.000000,392.266000
352.562281,9806.650000,0.000000,0.000000
352.562587,10120.462800,0.000000,0.000000
352.562893,10042.009600,0.000000,235.359600
352.563198,9335.930800,-156.906400,156.906400
352.563504,9885.103200,0.000000,-156.906400
352.563809,9571.290400,235.359600,-313.812800
352.564115,9492.837200,-156.906400,-235.359600
352.564421,9728.196800,0.000000,-235.359600
352.564726,10042.009600,0.000000,0.000000
352.565032,10042.009600,0.000000,0.000000
352.565337,9963.556400,78.453200,0.000000
352.565643,10042.009600,235.359600,-392.266000
352.565949,9806.650000,0.000000,-78.453200
352.566254,10198.916000,-313.812800,-1490.610800
352.566560,9414.384000,78.453200,-235.359600
352.566865,9649.743600,-1255.251200,-156.906400
352.567171,9885.103200,470.719200,392.266000
352.567476,10198.916000,627.625600,-78.453200
352.567782,10042.009600,0.000000,0.000000
352.568088,10434.275600,0.000000,-156.906400
352.568393,9963.556400,235.359600,235.359600
352.568699,9728.196800,-549.172400,0.000000
352.569004,10669.635200,-235.359600,549.172400
352.569310,9728.196800,-549.172400,470.719200
352.569616,10042.009600,-627.625600,470.719200
352.569921,10748.088400,0.000000,235.359600
352.570227,9806.650000,0.000000,0.000000
352.570532,9492.837200,627.625600,-470.719200
352.570838,9649.743600,0.000000,-156.906400
352.571143,10277.369200,0.000000,-706.078800
352.571449,9806.650000,-313.812800,-313.812800
352.571755,9571.290400,-470.719200,0.000000
352.572060,10904.994800,-156.906400,941.438400
352.572366,9963.556400,0.000000,-392.266000
352.572671,9806.650000,784.532000,156.906400
352.572977,9963.556400,0.000000,0.000000
352.573283,10198.916000,470.719200,0.000000
352.573588,9963.556400,0.000000,0.000000
352.573894,10277.369200,78.453200,784.532000
352.574199,9335.930800,313.812800,0.000000
352.574505,10512.728800,0.000000,78.453200
352.574811,9963.556400,-313.812800,313.812800
352.575116,9728.196800,0.000000,0.000000
352.575422,9885.103200,392.266000,-313.812800
352.575727,10120.462800,392.266000,470.719200
352.576033,10042.009600,0.000000,78.453200
352.576338,9885.103200,0.000000,313.812800
352.576644,10198.916000,156.906400,0.000000
352.576950,10042.009600,78.453200,0.000000
352.577255,9571.290400,156.906400,0.000000
352.577561,9728.196800,0.000000,-156.906400
352.577866,10042.009600,-392.266000,0.000000
352.578172,10277.369200,-392.266000,156.906400
352.578478,9885.103200,-156.906400,156.906400
352.578783,10512.728800,313.812800,313.812800
352.579089,10042.009600,-313.812800,392.266000
352.579394,10355.822400,0.000000,549.172400
352.579700,10042.009600,627.625600,470.719200
352.580005,10434.275600,313.812800,235.359600
352.580311,10042.009600,627.625600,0.000000
352.580617,10120.462800,0.000000,235.359600
352.580922,10042.009600,313.812800,235.359600
352.581228,10042.009600,-235.359600,78.453200
352.581533,9963.556400,-235.359600,0.000000
352.581839,9571.290400,0.000000,-235.359600
352.582145,10042.009600,-627.625600,0.000000
352.582450,9728.196800,0.000000,-706.078800
352.582756,9728.196800,-392.266000,-784.532000
352.583061,9885.103200,-235.359600,-784.532000
352.583367,9728.196800,78.453200,-627.625600
352.583672,10277.369200,0.000000,-392.266000
352.583978,10042.009600,470.719200,-706.078800
352.584284,9963.556400,0.000000,-627.625600
352.584589,10042.009600,-235.359600,-706.078800
352.584895,10042.009600,0.000000,-470.719200
352.585200,10434.275600,78.453200,-392.266000
352.585506,10277.369200,0.000000,0.000000
352.585812,10120.462800,235.359600,0.000000
352.586117,10512.728800,-313.812800,313.812800
352.586423,10198.916000,-156.906400,392.266000
352.586728,10591.182000,549.172400,-156.906400
352.587034,10042.009600,0.000000,78.453200
352.587340,11689.526800,-235.359600,1176.798000
352.587645,10277.369200,78.453200,706.078800
352.587951,9728.196800,-156.906400,549.172400
352.588256,10355.822400,-392.266000,78.453200
352.588562,10042.009600,-235.359600,78.453200
352.588867,9728.196800,-313.812800,0.000000
352.589173,10120.462800,78.453200,0.000000
352.589479,9806.650000,0.000000,-392.266000
352.589784,9492.837200,0.000000,-470.719200
352.590090,9885.103200,313.812800,-392.266000
352.590395,9728.196800,0.000000,-627.625600
352.590701,9806.650000,156.906400,-392.266000
352.591007,9492.837200,392.266000,-470.719200
352.591312,9571.290400,392.266000,-706.078800
352.591618,9885.103200,470.719200,-706.078800
352.591923,10591.182000,1019.891600,-470.719200
352.592229,9022.118000,392.266000,-706.078800
352.592534,9492.837200,78.453200,-470.719200
352.592840,10669.635200,0.000000,0.000000
352.593146,9649.743600,-1019.891600,78.453200
352.593451,9649.743600,0.000000,0.000000
352.593757,10983.448000,-235.359600,706.078800
352.594062,10120.462800,0.000000,549.172400
352.594368,9571.290400,156.906400,156.906400
352.594674,10355.822400,706.078800,1412.157600
352.594979,10512.728800,313.812800,549.172400
352.595285,9806.650000,392.266000,235.359600
352.595590,9806.650000,470.719200,0.000000
352.595896,9963.556400,0.000000,78.453200
352.596202,9885.103200,-156.906400,0.000000
352.596507,9728.196800,-470.719200,0.000000
352.596813,9885.103200,-235.359600,156.906400
352.597118,10042.009600,-235.359600,549.172400
352.597424,9963.556400,0.000000,156.906400
352.597729,9963.556400,235.359600,627.625600
352.598035,10042.009600,235.359600,-235.359600
352.598341,9963.556400,0.000000,-235.359600
352.598646,9885.103200,0.000000,0.000000
352.598952,9649.743600,0.000000,0.000000
352.599257,10042.009600,0.000000,0.000000
352.599563,10434.275600,0.000000,-706.078800
352.599869,10042.009600,0.000000,235.359600
352.600174,9806.650000,235.359600,0.000000
352.600480,10355.822400,313.812800,-156.906400
352.600785,10120.462800,78.453200,-313.812800
352.601091,10434.275600,0.000000,0.000000
352.601396,10042.009600,78.453200,0.000000
352.601702,10355.822400,-1176.798000,78.453200
352.602008,10512.728800,0.000000,0.000000
352.602313,9100.571200,-78.453200,-78.453200
352.602619,10591.182000,0.000000,0.000000
352.602924,10042.009600,862.985200,-862.985200
352.603230,9571.290400,0.000000,235.359600
352.603536,10042.009600,156.906400,0.000000
352.603841,10277.369200,0.000000,0.000000
352.604147,10042.009600,-627.625600,-156.906400
352.604452,9728.196800,313.812800,156.906400
352.604758,9806.650000,78.453200,0.000000
352.605064,10042.009600,235.359600,-156.906400
352.605369,9963.556400,156.906400,0.000000
352.605675,9963.556400,313.812800,0.000000
352.605980,9885.103200,0.000000,0.000000
352.606286,10042.009600,-392.266000,392.266000
352.606591,9728.196800,-1176.798000,549.172400
352.606897,9257.477600,0.000000,0.000000
352.607203,10512.728800,0.000000,235.359600
352.607508,9649.743600,313.812800,156.906400
352.607814,9649.743600,-156.906400,78.453200
352.608119,9492.837200,549.172400,0.000000
352.608425,10277.369200,235.359600,0.000000
352.608731,9806.650000,392.266000,235.359600
352.609036,9885.103200,706.078800,156.906400
352.609342,9728.196800,0.000000,0.000000
352.609647,10042.009600,-235.359600,-392.266000
352.609953,9963.556400,78.453200,-392.266000
352.610258,9571.290400,235.359600,-156.906400
352.610564,10434.275600,627.625600,-235.359600
352.610870,9806.650000,78.453200,-156.906400
352.611175,9806.650000,313.812800,-313.812800
352.611481,10042.009600,78.453200,-392.266000
352.611786,10042.009600,-392.266000,-235.359600
352.612092,9963.556400,0.000000,-78.453200
352.612398,9571.290400,-470.719200,0.000000
352.612703,10120.462800,-156.906400,156.906400
352.613009,9963.556400,-313.812800,0.000000
352.613314,9728.196800,-235.359600,0.000000
352.613620,10120.462800,0.000000,313.812800
352.613926,10277.369200,-156.906400,78.453200
352.614231,10120.462800,235.359600,156.906400
352.614537,9963.556400,313.812800,156.906400
352.614842,10042.009600,0.000000,392.266000
352.615148,10120.462800,0.000000,470.719200
352.615453,10355.822400,-392.266000,784.532000
352.615759,9963.556400,0.000000,470.719200
352.616065,10042.009600,0.000000,78.453200
352.616370,10277.369200,-235.359600,392.266000
352.616676,9728.196800,-392.266000,156.906400
352.616981,10198.916000,78.453200,235.359600
352.617287,10042.009600,-235.359600,-235.359600
352.617593,9885.103200,-235.359600,0.000000
352.617898,10042.009600,0.000000,-392.266000
352.618204,10042.009600,-235.359600,-313.812800
352.618509,10277.369200,0.000000,0.000000
352.618815,9649.743600,0.000000,0.000000
352.619120,10042.009600,-313.812800,0.000000
352.619426,10198.916000,78.453200,-392.266000
352.619732,10512.728800,706.078800,156.906400
352.620037,9885.103200,235.359600,-627.625600
352.620343,9100.571200,0.000000,313.812800
352.620648,10120.462800,156.906400,-549.172400
352.620954,9806.650000,1098.344800,0.000000
352.621260,10042.009600,235.359600,-392.266000
352.621565,8472.945600,235.359600,235.359600
352.621871,9649.743600,0.000000,0.000000
352.622176,9885.103200,-549.172400,627.625600
352.622482,8708.305200,0.000000,0.000000
352.622788,10826.541600,0.000000,156.906400
352.623093,9571.290400,235.359600,0.000000
352.623399,9885.103200,156.906400,0.000000
352.623704,10355.822400,0.000000,0.000000
352.624010,9885.103200,235.359600,0.000000
352.624315,9571.290400,-313.812800,-313.812800
352.624621,9963.556400,0.000000,-156.906400
352.624927,9806.650000,0.000000,0.000000
352.625232,10120.462800,-627.625600,-313.812800
352.625538,9963.556400,392.266000,0.000000
352.625843,10042.009600,-313.812800,0.000000
352.626149,10042.009600,156.906400,156.906400
352.626455,10042.009600,-235.359600,78.453200
352.626760,10198.916000,78.453200,-156.906400
352.627066,9649.743600,-392.266000,313.812800
352.627371,10277.369200,706.078800,0.000000
352.627677,10512.728800,156.906400,-470.719200
352.627982,9728.196800,862.985200,0.000000
352.628288,10042.009600,0.000000,-392.266000
352.628594,10198.916000,-392.266000,-235.359600
352.628899,9728.196800,-706.078800,0.000000
352.629205,9885.103200,-470.719200,0.000000
352.629510,10355.822400,-313.812800,313.812800
352.629816,9963.556400,0.000000,0.000000
352.630122,9963.556400,78.453200,0.000000
352.630427,10198.916000,-235.359600,0.000000
352.630733,10277.369200,78.453200,235.359600
352.631038,10120.462800,235.359600,0.000000
352.631344,10042.009600,-235.359600,156.906400
352.631649,10042.009600,0.000000,313.812800
352.631955,10198.916000,-470.719200,235.359600
352.632261,10042.009600,0.000000,0.000000
352.632566,10042.009600,0.000000,0.000000
352.632872,10512.728800,470.719200,313.812800
352.633177,10042.009600,78.453200,0.000000
352.633483,10042.009600,-235.359600,0.000000
352.633789,10042.009600,313.812800,-156.906400
352.634094,9963.556400,235.359600,-313.812800
352.634400,9414.384000,627.625600,78.453200
352.634705,9179.024400,549.172400,0.000000
352.635011,13023.231200,-706.078800,470.719200
352.635317,9257.477600,-1333.704400,-313.812800
352.635622,9414.384000,-313.812800,-392.266000
352.635928,10120.462800,-470.719200,-235.359600
352.636233,9571.290400,0.000000,-156.906400
352.636539,10355.822400,-627.625600,0.000000
352.636844,9885.103200,313.812800,0.000000
352.637150,9414.384000,235.359600,0.000000
352.637456,9885.103200,-470.719200,549.172400
352.637761,10120.462800,549.172400,-941.438400
352.638067,10042.009600,78.453200,549.172400
352.638372,10591.182000,0.000000,-313.812800
352.638678,10042.009600,1176.798000,-470.719200
352.638984,10355.822400,627.625600,-78.453200
352.639289,10904.994800,1019.891600,313.812800
352.639595,10277.369200,78.453200,-235.359600
352.639900,10042.009600,313.812800,-549.172400
352.640206,9963.556400,156.906400,-392.266000
352.640511,9885.103200,-392.266000,-392.266000
352.640817,10512.728800,-156.906400,392.266000
352.641123,10198.916000,-549.172400,78.453200
352.641428,10042.009600,-313.812800,235.359600
352.641734,9885.103200,0.000000,0.000000
352.642039,10042.009600,313.812800,-235.359600
352.642345,10120.462800,156.906400,-392.266000
352.642651,9963.556400,78.453200,-313.812800
352.642956,10198.916000,235.359600,0.000000
352.643262,9649.743600,156.906400,-235.359600
352.643567,9649.743600,-313.812800,-470.719200
352.643873,9571.290400,-156.906400,627.625600
352.644179,9806.650000,-627.625600,0.000000
352.644484,9728.196800,-156.906400,-313.812800
352.644790,10277.369200,-235.359600,-313.812800
352.645095,10042.009600,-313.812800,-706.078800
352.645401,9571.290400,156.906400,0.000000
352.645706,10748.088400,470.719200,0.000000
352.646012,10355.822400,392.266000,-706.078800
352.646318,9728.196800,156.906400,-549.172400
352.646623,9963.556400,0.000000,-313.812800
352.646929,10042.009600,0.000000,-313.812800
352.647234,10042.009600,-1255.251200,78.453200
352.647540,10434.275600,-235.359600,627.625600
352.647846,10042.009600,-313.812800,784.532000
352.648151,10042.009600,-549.172400,784.532000
352.648457,10591.182000,-156.906400,313.812800
352.648762,10120.462800,235.359600,-313.812800
352.649068,9963.556400,706.078800,0.000000
352.649373,10355.822400,706.078800,0.000000
352.649679,10042.009600,392.266000,0.000000
352.649985,10042.009600,78.453200,0.000000
352.650290,10120.462800,0.000000,549.172400
352.650596,9414.384000,-549.172400,0.000000
352.650901,10042.009600,0.000000,392.266000
352.651207,9806.650000,0.000000,235.359600
352.651513,9963.556400,235.359600,156.906400
352.651818,9963.556400,392.266000,0.000000
352.652124,9885.103200,235.359600,549.172400
352.652429,10042.009600,313.812800,392.266000
352.652735,9806.650000,235.359600,0.000000
352.653041,9728.196800,0.000000,0.000000
352.653346,10277.369200,-392.266000,313.812800
352.653652,10120.462800,-470.719200,156.906400
352.653957,9885.103200,-627.625600,392.266000
352.654263,10120.462800,0.000000,549.172400
352.654568,10277.369200,0.000000,1019.891600
352.654874,10434.275600,313.812800,1098.344800
352.655180,10355.822400,235.359600,941.438400
352.655485,10434.275600,627.625600,941.438400
352.655791,10826.541600,1176.798000,313.812800
352.656096,10355.822400,235.359600,549.172400
352.656402,10042.009600,0.000000,706.078800
352.656708,10355.822400,0.000000,0.000000
352.657013,10042.009600,-549.172400,470.719200
352.657319,9728.196800,-1255.251200,235.359600
352.657624,9728.196800,-784.532000,156.906400
352.657930,9963.556400,-470.719200,470.719200
352.658235,10042.009600,-156.906400,235.359600
352.658541,9179.024400,0.000000,-549.172400
352.658847,9728.196800,0.000000,-627.625600
352.659152,10042.009600,0.000000,-706.078800
352.659458,9885.103200,0.000000,-706.078800
352.659763,9649.743600,-549.172400,-313.812800
352.660069,9806.650000,-549.172400,-235.359600
352.660375,9885.103200,-706.078800,-627.625600
352.660680,10042.009600,-862.985200,-549.172400
352.660986,9571.290400,-549.172400,-549.172400
352.661291,9335.930800,-313.812800,235.359600
352.661597,10826.541600,0.000000,-1098.344800
352.661903,10042.009600,0.000000,-549.172400
352.662208,9963.556400,0.000000,-313.812800
352.662514,10512.728800,313.812800,-392.266000
352.662819,10355.822400,78.453200,-549.172400
352.663125,10120.462800,-313.812800,-470.719200
352.663430,9728.196800,0.000000,-392.266000
352.663736,10198.916000,-392.266000,0.000000
352.664042,10198.916000,0.000000,0.000000
352.664347,9728.196800,-235.359600,78.453200
352.664653,10277.369200,0.000000,0.000000
352.664958,10277.369200,549.172400,-156.906400
352.665264,9963.556400,156.906400,0.000000
352.665570,10120.462800,78.453200,-313.812800
352.665875,9963.556400,313.812800,0.000000
352.666181,9963.556400,0.000000,-313.812800
352.666486,10042.009600,235.359600,-156.906400
352.666792,9963.556400,-156.906400,-470.719200
352.667097,10042.009600,-156.906400,-470.719200
352.667403,9806.650000,0.000000,-313.812800
352.667709,9492.837200,0.000000,-313.812800
352.668014,9885.103200,156.906400,-313.812800
352.668320,10277.369200,235.359600,-235.359600
352.668625,9806.650000,0.000000,-392.266000
352.668931,9963.556400,0.000000,-235.359600
352.669237,9963.556400,78.453200,-392.266000
352.669542,10198.916000,235.359600,-313.812800
352.669848,9728.196800,0.000000,-470.719200
352.670153,9649.743600,156.906400,-392.266000
352.670459,10120.462800,0.000000,-392.266000
352.670765,9885.103200,0.000000,-392.266000
352.671070,10042.009600,-313.812800,0.000000
352.671376,10042.009600,-156.906400,0.000000
352.671681,10042.009600,-156.906400,-313.812800
352.671987,10277.369200,-392.266000,0.000000
352.672292,9649.743600,0.000000,-235.359600
352.672598,10042.009600,-156.906400,0.000000
352.672904,10120.462800,0.000000,-470.719200
352.673209,9885.103200,-392.266000,0.000000
352.673515,10042.009600,-706.078800,156.906400
352.673820,9492.837200,-313.812800,235.359600
352.674126,10042.009600,-313.812800,235.359600
352.674432,10120.462800,-78.453200,-470.719200
352.674737,9963.556400,0.000000,1412.157600
352.675043,10198.916000,-235.359600,0.000000
352.675348,10042.009600,1333.704400,-235.359600
352.675654,10120.462800,392.266000,156.906400
352.675959,10277.369200,156.906400,156.906400
352.676265,10355.822400,0.000000,392.266000
352.676571,10434.275600,0.000000,313.812800
352.676876,9492.837200,78.453200,-1647.517200
352.677182,10120.462800,156.906400,0.000000
352.677487,10198.916000,235.359600,-156.906400
352.677793,10042.009600,470.719200,0.000000
352.678099,10042.009600,0.000000,392.266000
352.678404,10042.009600,-313.812800,627.625600
352.678710,9728.196800,392.266000,470.719200
352.679015,11061.901200,313.812800,78.453200
352.679321,9257.477600,627.625600,78.453200
352.679627,9571.290400,156.906400,0.000000
352.679932,10355.822400,470.719200,549.172400
352.680238,9179.024400,313.812800,235.359600
352.680543,9885.103200,156.906400,549.172400
352.680849,9963.556400,235.359600,78.453200
352.681154,9649.743600,0.000000,0.000000
352.681460,9492.837200,235.359600,0.000000
352.681766,9571.290400,78.453200,0.000000
352.682071,9571.290400,627.625600,0.000000
352.682377,9963.556400,156.906400,156.906400
352.682682,9728.196800,313.812800,156.906400
352.682988,9963.556400,706.078800,156.906400
352.683294,10355.822400,0.000000,78.453200
352.683599,9806.650000,0.000000,549.172400
352.683905,10042.009600,941.438400,235.359600
352.684210,10120.462800,313.812800,-313.812800
352.684516,9963.556400,470.719200,235.359600
352.684821,10512.728800,0.000000,78.453200
352.685127,10042.009600,235.359600,156.906400
352.685433,9885.103200,78.453200,156.906400
352.685738,9728.196800,0.000000,0.000000
352.686044,9963.556400,78.453200,156.906400
352.686349,10198.916000,0.000000,-235.359600
352.686655,10198.916000,0.000000,-235.359600
352.686961,9649.743600,0.000000,-313.812800
352.687266,9963.556400,0.000000,0.000000
352.687572,10042.009600,0.000000,0.000000
352.687877,10198.916000,313.812800,235.359600
352.688183,9885.103200,235.359600,-235.359600
352.688488,9649.743600,78.453200,-627.625600
352.688794,10277.369200,78.453200,-392.266000
352.689100,10042.009600,78.453200,-392.266000
352.689405,10277.369200,0.000000,0.000000
352.689711,10042.009600,-235.359600,0.000000
352.690016,9728.196800,-392.266000,0.000000
352.690322,9963.556400,-235.359600,0.000000
352.690628,9728.196800,0.000000,78.453200
352.690933,10277.369200,0.000000,0.000000
352.691239,10042.009600,156.906400,-235.359600
352.691544,10042.009600,-313.812800,-313.812800
352.691850,10042.009600,-78.453200,0.000000
352.692156,10355.822400,156.906400,-470.719200
352.692461,10198.916000,-156.906400,0.000000
352.692767,9414.384000,78.453200,-313.812800
352.693072,9806.650000,-313.812800,78.453200
352.693378,9885.103200,-627.625600,-627.625600
352.693683,9492.837200,0.000000,-470.719200
352.693989,9571.290400,0.000000,-627.625600
352.694295,9963.556400,0.000000,0.000000
352.694600,10042.009600,78.453200,-235.359600
352.694906,9806.650000,156.906400,-392.266000
352.695211,9963.556400,235.359600,-470.719200
352.695517,10198.916000,0.000000,-235.359600
352.695823,10042.009600,156.906400,0.000000
352.696128,9806.650000,-235.359600,156.906400
352.696434,9885.103200,0.000000,78.453200
352.696739,9963.556400,78.453200,0.000000
352.697045,10198.916000,0.000000,235.359600
352.697350,10434.275600,392.266000,-235.359600
352.697656,9963.556400,235.359600,0.000000
352.697962,9963.556400,-235.359600,0.000000
352.698267,9571.290400,-549.172400,-235.359600
352.698573,9963.556400,-392.266000,0.000000
352.698878,10434.275600,-470.719200,313.812800
352.699184,9885.103200,-313.812800,0.000000
352.699490,10434.275600,-392.266000,0.000000
352.699795,9885.103200,-392.266000,235.359600
352.700101,9571.290400,549.172400,-392.266000
352.700406,10826.541600,313.812800,78.453200
352.700712,9492.837200,156.906400,0.000000
352.701018,9649.743600,313.812800,-313.812800
352.701323,10512.728800,0.000000,-235.359600
352.701629,9257.477600,-313.812800,0.000000
352.701934,10277.369200,78.453200,235.359600
352.702240,9963.556400,0.000000,-706.078800
352.702545,9963.556400,0.000000,0.000000
352.702851,9963.556400,-313.812800,392.266000
352.703157,9728.196800,-313.812800,627.625600
352.703462,9728.196800,-392.266000,470.719200
352.703768,10198.916000,-706.078800,784.532000
352.704073,9414.384000,-235.359600,470.719200
352.704379,10042.009600,235.359600,313.812800
352.704685,10042.009600,78.453200,0.000000
352.704990,9885.103200,392.266000,78.453200
352.705296,9963.556400,0.000000,78.453200
352.705601,10120.462800,313.812800,392.266000
352.705907,9885.103200,-392.266000,78.453200
352.706212,9963.556400,78.453200,78.453200
352.706518,9885.103200,0.000000,156.906400
352.706824,10277.369200,0.000000,156.906400
352.707129,10120.462800,313.812800,0.000000
352.707435,9571.290400,0.000000,78.453200
352.707740,10042.009600,156.906400,313.812800
352.708046,10042.009600,0.000000,627.625600
352.708352,10277.369200,-549.172400,0.000000
352.708657,10042.009600,156.906400,392.266000
352.708963,10042.009600,0.000000,0.000000
352.709268,10042.009600,0.000000,0.000000
352.709574,10042.009600,0.000000,0.000000
352.709880,10591.182000,-784.532000,392.266000
352.710185,10042.009600,0.000000,470.719200
352.710491,10277.369200,0.000000,1176.798000
352.710796,10904.994800,0.000000,470.719200
352.711102,10120.462800,0.000000,156.906400
352.711407,9963.556400,156.906400,627.625600
352.711713,9728.196800,-78.453200,313.812800
352.712019,10277.369200,0.000000,-392.266000
352.712324,9806.650000,-706.078800,313.812800
352.712630,11218.807600,-784.532000,156.906400
352.712935,7139.241200,941.438400,0.000000
352.713241,9885.103200,862.985200,-313.812800
352.713547,10904.994800,-549.172400,0.000000
352.713852,9335.930800,-627.625600,0.000000
352.714158,9649.743600,862.985200,0.000000
352.714463,9492.837200,78.453200,313.812800
352.714769,10042.009600,-784.532000,0.000000
352.715074,11140.354400,-1490.610800,0.000000
352.715380,9571.290400,156.906400,-470.719200
352.715686,9728.196800,627.625600,-156.906400
352.715991,10512.728800,392.266000,0.000000
352.716297,10042.009600,156.906400,0.000000
352.716602,10120.462800,-235.359600,78.453200
352.716908,10669.635200,0.000000,235.359600
352.717214,9963.556400,-392.266000,78.453200
352.717519,10042.009600,-235.359600,0.000000
352.717825,10042.009600,156.906400,0.000000
352.718130,9806.650000,0.000000,-392.266000
352.718436,9885.103200,156.906400,-235.359600
352.718742,9571.290400,392.266000,-549.172400
352.719047,9885.103200,78.453200,-313.812800
352.719353,10277.369200,313.812800,0.000000
352.719658,9728.196800,156.906400,-627.625600
352.719964,10120.462800,235.359600,-235.359600
352.720269,10591.182000,392.266000,0.000000
352.720575,9571.290400,0.000000,-235.359600
352.720881,10198.916000,0.000000,-470.719200
352.721186,9963.556400,313.812800,-313.812800
352.721492,10042.009600,78.453200,0.000000
352.721797,10042.009600,235.359600,0.000000
352.722103,9963.556400,235.359600,-235.359600
352.722409,9885.103200,784.532000,-313.812800
352.722714,10042.009600,392.266000,-313.812800
352.723020,10042.009600,392.266000,0.000000
352.723325,10277.369200,78.453200,235.359600
352.723631,10355.822400,313.812800,0.000000
352.723936,10042.009600,78.453200,156.906400
352.724242,9885.103200,156.906400,-313.812800
352.724548,9649.743600,0.000000,-313.812800
352.724853,9728.196800,0.000000,-549.172400
352.725159,9649.743600,-313.812800,0.000000
352.725464,9100.571200,0.000000,0.000000
352.725770,9728.196800,0.000000,-470.719200
352.726076,9806.650000,-392.266000,-392.266000
352.726381,9649.743600,-235.359600,-235.359600
352.726687,9885.103200,0.000000,-235.359600
352.726992,10042.009600,-313.812800,-470.719200
352.727298,10042.009600,0.000000,-706.078800
352.727604,9963.556400,-392.266000,-392.266000
352.727909,10120.462800,-627.625600,78.453200
352.728215,10748.088400,0.000000,-313.812800
352.728520,10198.916000,-706.078800,-313.812800
352.728826,11140.354400,0.000000,-235.359600
352.729131,10277.369200,78.453200,-313.812800
352.729437,10198.916000,-78.453200,0.000000
352.729743,10355.822400,0.000000,-627.625600
352.730048,9963.556400,0.000000,0.000000
352.730354,9885.103200,-470.719200,0.000000
352.730659,10120.462800,0.000000,0.000000
352.730965,10355.822400,-706.078800,-156.906400
352.731271,9571.290400,0.000000,0.000000
352.731576,10277.369200,-392.266000,235.359600
352.731882,10042.009600,0.000000,0.000000
352.732187,10042.009600,156.906400,0.000000
352.732493,9885.103200,470.719200,-235.359600
352.732798,9571.290400,627.625600,0.000000
352.733104,10355.822400,-235.359600,549.172400
352.733410,8943.664800,-156.906400,-706.078800
352.733715,10120.462800,-235.359600,235.359600
352.734021,10042.009600,0.000000,0.000000
352.734326,9963.556400,0.000000,78.453200
352.734632,9728.196800,-235.359600,156.906400
352.734938,10042.009600,156.906400,313.812800
352.735243,10042.009600,470.719200,313.812800
352.735549,9885.103200,313.812800,156.906400
352.735854,9571.290400,470.719200,78.453200
352.736160,9806.650000,235.359600,78.453200
352.736465,9963.556400,549.172400,156.906400
352.736771,10198.916000,470.719200,549.172400
352.737077,9571.290400,156.906400,156.906400
352.737382,10042.009600,0.000000,470.719200
352.737688,10042.009600,0.000000,156.906400
352.737993,9885.103200,0.000000,784.532000
352.738299,9571.290400,235.359600,0.000000
352.738605,10198.916000,549.172400,0.000000
352.738910,9571.290400,627.625600,-235.359600
352.739216,9728.196800,78.453200,0.000000
352.739521,10042.009600,235.359600,0.000000
352.739827,10042.009600,-706.078800,0.000000
352.740133,9806.650000,-470.719200,78.453200
352.740438,10120.462800,-392.266000,313.812800
352.740744,10042.009600,-549.172400,156.906400
352.741049,10042.009600,0.000000,78.453200
352.741355,9806.650000,-470.719200,313.812800
352.741660,10042.009600,0.000000,0.000000
352.741966,10355.822400,0.000000,0.000000
352.742272,10277.369200,-313.812800,0.000000
352.742577,9885.103200,0.000000,78.453200
352.742883,10198.916000,-235.359600,862.985200
352.743188,10042.009600,0.000000,78.453200
352.743494,10120.462800,0.000000,0.000000
352.743800,9963.556400,-392.266000,78.453200
352.744105,9728.196800,-156.906400,0.000000
352.744411,9963.556400,-1098.344800,392.266000
352.744716,10042.009600,0.000000,-313.812800
352.745022,9806.650000,0.000000,-235.359600
352.745327,10120.462800,0.000000,0.000000
352.745633,10042.009600,-156.906400,0.000000
352.745939,9963.556400,-706.078800,-392.266000
352.746244,9414.384000,-156.906400,784.532000
352.746550,10042.009600,156.906400,470.719200
352.746855,10042.009600,1019.891600,0.000000
352.747161,9885.103200,235.359600,470.719200
352.747467,10904.994800,-78.453200,627.625600
352.747772,10120.462800,0.000000,549.172400
352.748078,9963.556400,-627.625600,470.719200
352.748383,9571.290400,78.453200,0.000000
352.748689,10277.369200,313.812800,-392.266000
352.748995,9649.743600,-706.078800,0.000000
352.749300,9492.837200,-313.812800,-313.812800
352.749606,9571.290400,-235.359600,0.000000
352.749911,10042.009600,-706.078800,-156.906400
352.750217,9649.743600,0.000000,0.000000
352.750522,9257.477600,-392.266000,-392.266000
352.750828,9806.650000,0.000000,-862.985200
352.751134,10042.009600,0.000000,0.000000
352.751439,9649.743600,-313.812800,0.000000
352.751745,9414.384000,235.359600,0.000000
352.752050,10748.088400,-313.812800,0.000000
352.752356,10748.088400,-235.359600,470.719200
352.752662,9885.103200,0.000000,0.000000
352.752967,10591.182000,549.172400,78.453200
352.753273,9806.650000,0.000000,0.000000
352.753578,10277.369200,-156.906400,0.000000
352.753884,10512.728800,313.812800,-235.359600
352.754189,9728.196800,156.906400,-392.266000
352.754495,10591.182000,392.266000,627.625600
352.754801,10042.009600,313.812800,-392.266000
352.755106,9414.384000,78.453200,-235.359600
352.755412,11532.620400,156.906400,706.078800
352.755717,10042.009600,-235.359600,0.000000
352.756023,9100.571200,235.359600,-627.625600
352.756329,10669.635200,235.359600,0.000000
352.756634,9963.556400,0.000000,0.000000
352.756940,10042.009600,549.172400,-784.532000
352.757245,10042.009600,78.453200,0.000000
352.757551,9649.743600,0.000000,0.000000
352.757857,10042.009600,0.000000,313.812800
352.758162,10042.009600,235.359600,470.719200
352.758468,9885.103200,235.359600,549.172400
352.758773,9963.556400,470.719200,0.000000
352.759079,10277.369200,627.625600,0.000000
352.759384,9963.556400,235.359600,-235.359600
352.759690,10042.009600,784.532000,-549.172400
352.759996,9963.556400,392.266000,-392.266000
352.760301,10042.009600,-313.812800,-549.172400
352.760607,10042.009600,-392.266000,-235.359600
352.760912,9885.103200,0.000000,-156.906400
352.761218,10042.009600,156.906400,0.000000
352.761524,10120.462800,392.266000,0.000000
352.761829,9806.650000,470.719200,313.812800
352.762135,9885.103200,706.078800,0.000000
352.762440,10277.369200,0.000000,0.000000
352.762746,10042.009600,0.000000,0.000000
352.763051,10120.462800,313.812800,313.812800
352.763357,9885.103200,-470.719200,0.000000
352.763663,9649.743600,0.000000,156.906400
352.763968,10042.009600,0.000000,0.000000
352.764274,10042.009600,470.719200,0.000000
352.764579,10042.009600,0.000000,-313.812800
352.764885,10512.728800,235.359600,0.000000
352.765191,9100.571200,470.719200,-313.812800
352.765496,10042.009600,0.000000,-235.359600
352.765802,10198.916000,706.078800,-941.438400
352.766107,9179.024400,0.000000,-313.812800
352.766413,9885.103200,-156.906400,-784.532000
352.766719,9885.103200,549.172400,-1019.891600
352.767024,9963.556400,0.000000,-392.266000
352.767330,9728.196800,235.359600,-235.359600
352.767635,9728.196800,235.359600,-470.719200
352.767941,10355.822400,0.000000,-470.719200
352.768246,10434.275600,0.000000,-470.719200
352.768552,9728.196800,78.453200,0.000000
352.768858,10198.916000,784.532000,0.000000
352.769163,10198.916000,392.266000,78.453200
352.769469,10042.009600,-392.266000,78.453200
352.769774,10042.009600,0.000000,313.812800
352.770080,9963.556400,0.000000,235.359600
352.770386,9963.556400,-235.359600,0.000000
352.770691,10512.728800,156.906400,0.000000
352.770997,9728.196800,0.000000,235.359600
352.771302,10277.369200,0.000000,0.000000
352.771608,9963.556400,0.000000,-549.172400
352.771913,9728.196800,549.172400,-313.812800
352.772219,9885.103200,549.172400,-156.906400
352.772525,9963.556400,627.625600,0.000000
352.772830,10120.462800,862.985200,0.000000
352.773136,10042.009600,392.266000,78.453200
352.773441,10042.009600,78.453200,313.812800
352.773747,10042.009600,470.719200,78.453200
352.774053,10042.009600,313.812800,0.000000
352.774358,9806.650000,313.812800,0.000000
352.774664,10277.369200,313.812800,0.000000
352.774969,10198.916000,470.719200,78.453200
352.775275,9885.103200,235.359600,392.266000
352.775581,10434.275600,156.906400,627.625600
352.775886,10512.728800,235.359600,0.000000
352.776192,9806.650000,0.000000,0.000000
352.776497,10042.009600,313.812800,0.000000
352.776803,10042.009600,392.266000,0.000000
352.777108,10042.009600,-313.812800,0.000000
352.777414,10434.275600,156.906400,470.719200
352.777720,9963.556400,0.000000,-392.266000
352.778025,10042.009600,78.453200,78.453200
352.778331,10198.916000,0.000000,78.453200
352.778636,9806.650000,-156.906400,0.000000
352.778942,9179.024400,0.000000,0.000000
352.779248,9963.556400,-549.172400,78.453200
352.779553,9806.650000,0.000000,-313.812800
352.779859,9414.384000,235.359600,0.000000
352.780164,9963.556400,0.000000,0.000000
352.780470,10120.462800,0.000000,0.000000
352.780775,10042.009600,0.000000,-313.812800
352.781081,10042.009600,0.000000,78.453200
352.781387,10042.009600,-156.906400,0.000000
352.781692,10042.009600,-313.812800,235.359600
352.781998,10120.462800,0.000000,1490.610800
352.782303,10904.994800,-706.078800,862.985200
352.782609,10277.369200,0.000000,549.172400
352.782915,10042.009600,78.453200,784.532000
352.783220,10748.088400,78.453200,313.812800
352.783526,10277.369200,627.625600,-78.453200
352.783831,9885.103200,-156.906400,0.000000
352.784137,10042.009600,-78.453200,0.000000
352.784443,9885.103200,-706.078800,0.000000
352.784748,9649.743600,-549.172400,0.000000
352.785054,10042.009600,-470.719200,0.000000
352.785359,10512.728800,-627.625600,0.000000
352.785665,9571.290400,-392.266000,0.000000
352.785970,10042.009600,-235.359600,0.000000
352.786276,10042.009600,0.000000,235.359600
352.786582,9728.196800,-313.812800,0.000000
352.786887,9806.650000,235.359600,862.985200
352.787193,9963.556400,0.000000,78.453200
352.787498,10042.009600,0.000000,0.000000
352.787804,9728.196800,0.000000,-156.906400
352.788110,9728.196800,-470.719200,0.000000
352.788415,9963.556400,-1176.798000,0.000000
352.788721,8786.758400,-313.812800,78.453200
352.789026,10983.448000,0.000000,0.000000
352.789332,9649.743600,0.000000,470.719200
352.789637,9885.103200,392.266000,156.906400
352.789943,10512.728800,235.359600,235.359600
352.790249,10042.009600,627.625600,-156.906400
352.790554,9963.556400,156.906400,-235.359600
352.790860,10198.916000,0.000000,78.453200
352.791165,9728.196800,-549.172400,0.000000
352.791471,10198.916000,-470.719200,235.359600
352.791777,10355.822400,0.000000,549.172400
352.792082,9728.196800,-235.359600,0.000000
352.792388,10042.009600,313.812800,0.000000
352.792693,9963.556400,706.078800,-313.812800
352.792999,9885.103200,78.453200,0.000000
352.793304,8865.211600,-313.812800,470.719200
352.793610,9335.930800,78.453200,313.812800
352.793916,10042.009600,78.453200,0.000000
352.794221,9728.196800,0.000000,78.453200
352.794527,10042.009600,156.906400,-156.906400
352.794832,10042.009600,235.359600,-156.906400
352.795138,9728.196800,0.000000,-470.719200
352.795444,10042.009600,313.812800,0.000000
352.795749,9806.650000,-235.359600,0.000000
352.796055,9571.290400,0.000000,0.000000
352.796360,11297.260800,0.000000,-235.359600
352.796666,9963.556400,78.453200,0.000000
352.796972,9885.103200,549.172400,0.000000
352.797277,10198.916000,156.906400,-392.266000
352.797583,10198.916000,78.453200,-392.266000
352.797888,10355.822400,-470.719200,392.266000
352.798194,10120.462800,-392.266000,392.266000
352.798499,9963.556400,-392.266000,0.000000
352.798805,10198.916000,-470.719200,156.906400
352.799111,10042.009600,0.000000,0.000000
352.799416,9963.556400,392.266000,-313.812800
352.799722,10042.009600,78.453200,-156.906400
352.800027,9963.556400,78.453200,-627.625600
352.800333,9885.103200,0.000000,-235.359600
352.800639,10512.728800,156.906400,0.000000
352.800944,9492.837200,-78.453200,78.453200
352.801250,10277.369200,0.000000,78.453200
352.801555,9963.556400,235.359600,-392.266000
352.801861,10042.009600,0.000000,-78.453200
352.802166,11218.807600,-862.985200,-78.453200
352.802472,9963.556400,-392.266000,0.000000
352.802778,10042.009600,156.906400,156.906400
352.803083,9963.556400,0.000000,-313.812800
352.803389,9963.556400,156.906400,0.000000
352.803694,11297.260800,784.532000,78.453200
352.804000,9257.477600,313.812800,-235.359600
352.804306,10120.462800,549.172400,-941.438400
352.804611,10042.009600,0.000000,-392.266000
352.804917,9414.384000,-549.172400,235.359600
352.805222,10434.275600,0.000000,78.453200
352.805528,9963.556400,470.719200,-156.906400
352.805834,9885.103200,392.266000,-235.359600
352.806139,10591.182000,0.000000,0.000000
352.806445,9885.103200,78.453200,-392.266000
352.806750,9806.650000,470.719200,-470.719200
352.807056,9806.650000,-156.906400,-156.906400
352.807361,9649.743600,156.906400,0.000000
352.807667,10277.369200,0.000000,78.453200
352.807973,9963.556400,392.266000,-156.906400
352.808278,9963.556400,549.172400,0.000000
352.808584,10042.009600,156.906400,-235.359600
352.808889,9963.556400,0.000000,-313.812800
352.809195,9885.103200,392.266000,156.906400
352.809501,10277.369200,235.359600,313.812800
352.809806,9571.290400,470.719200,0.000000
352.810112,9571.290400,235.359600,-235.359600
352.810417,10512.728800,470.719200,156.906400
352.810723,10120.462800,392.266000,-235.359600
352.811028,9806.650000,313.812800,0.000000
352.811334,10042.009600,549.172400,-235.359600
352.811640,9885.103200,0.000000,-313.812800
352.811945,9885.103200,235.359600,0.000000
352.812251,10355.822400,-470.719200,78.453200
352.812556,10042.009600,-235.359600,0.000000
352.812862,9649.743600,784.532000,-235.359600
352.813168,10042.009600,-392.266000,0.000000
352.813473,10198.916000,392.266000,0.000000
352.813779,9963.556400,0.000000,392.266000
352.814084,10120.462800,-392.266000,627.625600
352.814390,10355.822400,156.906400,392.266000
352.814696,9885.103200,0.000000,0.000000
352.815001,9885.103200,549.172400,0.000000
352.815307,9649.743600,627.625600,-706.078800
352.815612,10355.822400,313.812800,-549.172400
352.815918,9963.556400,0.000000,-156.906400
352.816223,9571.290400,-941.438400,235.359600
352.816529,10355.822400,-1019.891600,470.719200
352.816835,10591.182000,-627.625600,862.985200
352.817140,9728.196800,-392.266000,784.532000
352.817446,10042.009600,235.359600,156.906400
352.817751,9963.556400,156.906400,-156.906400
352.818057,9963.556400,0.000000,-627.625600
352.818363,9963.556400,-78.453200,-784.532000
352.818668,9963.556400,313.812800,-862.985200
352.818974,10042.009600,-862.985200,-235.359600
352.819279,9806.650000,-1882.876800,-78.453200
352.819585,10120.462800,-1725.970400,0.000000
352.819890,10042.009600,-1647.517200,235.359600
352.820196,10198.916000,-1569.064000,235.359600
352.820502,10042.009600,-549.172400,78.453200
352.820807,10120.462800,-392.266000,235.359600
352.821113,10355.822400,-392.266000,235.359600
352.821418,10042.009600,-235.359600,392.266000
352.821724,9963.556400,-1098.344800,0.000000
352.822030,10120.462800,-1255.251200,156.906400
352.822335,10198.916000,-1569.064000,313.812800
352.822641,9806.650000,-1882.876800,392.266000
352.822946,9885.103200,-2196.689600,549.172400
352.823252,10591.182000,-1804.423600,941.438400
352.823558,9806.650000,-1333.704400,1098.344800
352.823863,9963.556400,-1569.064000,784.532000
352.824169,9806.650000,-1333.704400,862.985200
352.824474,10042.009600,-1098.344800,862.985200
352.824780,10512.728800,-1490.610800,1019.891600
352.825085,9414.384000,-1176.798000,392.266000
352.825391,9728.196800,-1804.423600,784.532000
352.825697,10198.916000,-2353.596000,1255.251200
352.826002,9963.556400,-2745.862000,1490.610800
352.826308,10198.916000,-2432.049200,1961.330000
352.826613,10277.369200,-2353.596000,2196.689600
352.826919,10277.369200,-2353.596000,2118.236400
352.827225,9414.384000,-3138.128000,2432.049200
352.827530,9335.930800,-1176.798000,1176.798000
352.827836,11532.620400,-2039.783200,1647.517200
352.828141,9885.103200,-1098.344800,1490.610800
352.828447,9257.477600,-2510.502400,1647.517200
352.828752,10512.728800,-2510.502400,2196.689600
352.829058,9885.103200,-3451.940800,2510.502400
352.829364,10591.182000,-3059.674800,3373.487600
352.829669,9649.743600,-2510.502400,2196.689600
352.829975,10120.462800,-2902.768400,2510.502400
352.830280,10355.822400,-2981.221600,2510.502400
352.830586,10042.009600,-2588.955600,2275.142800
352.830892,9728.196800,-2510.502400,1961.330000
352.831197,10042.009600,-2118.236400,2745.862000
352.831503,10042.009600,-2510.502400,2510.502400
352.831808,10748.088400,-2275.142800,2588.955600
352.832114,9963.556400,-2510.502400,2667.408800
352.832420,9806.650000,-3295.034400,3295.034400
352.832725,10748.088400,-2902.768400,3059.674800
352.833031,9649.743600,-3216.581200,3216.581200
352.833336,9806.650000,-2902.768400,3059.674800
352.833642,9963.556400,-3059.674800,3373.487600
352.833947,10042.009600,-3373.487600,3687.300400
352.834253,10277.369200,-3216.581200,3687.300400
352.834559,9885.103200,-2745.862000,4158.019600
352.834864,10434.275600,-2902.768400,4236.472800
352.835170,10042.009600,-2275.142800,3844.206800
352.835475,10198.916000,-2196.689600,3608.847200
352.835781,10042.009600,-1961.330000,3530.394000
352.836087,9257.477600,-2039.783200,3608.847200
352.836392,9885.103200,-2588.955600,2667.408800
352.836698,8943.664800,-3451.940800,3687.300400
352.837003,9963.556400,-4079.566400,4001.113200
352.837309,10277.369200,-2667.408800,3765.753600
352.837614,9806.650000,-2667.408800,4942.551600
352.837920,10120.462800,-2432.049200,3216.581200
352.838226,10120.462800,-1882.876800,3373.487600
352.838531,9885.103200,-1725.970400,2745.862000
352.838837,10042.009600,-1569.064000,2510.502400
352.839142,9963.556400,-1725.970400,3216.581200
352.839448,10042.009600,-2353.596000,2902.768400
352.839754,10042.009600,-2588.955600,2981.221600
352.840059,9963.556400,-2981.221600,3451.940800
352.840365,9806.650000,-3373.487600,3844.206800
352.840670,10120.462800,-2824.315200,3687.300400
352.840976,10277.369200,-3216.581200,3295.034400
352.841282,10042.009600,-2667.408800,3608.847200
352.841587,10042.009600,-2196.689600,2981.221600
352.841893,10042.009600,-1882.876800,2667.408800
352.842198,10198.916000,-1725.970400,2432.049200
352.842504,9728.196800,-1804.423600,2196.689600
352.842809,9885.103200,-2039.783200,1725.970400
352.843115,9728.196800,-2432.049200,1647.517200
352.843421,9963.556400,-2745.862000,1882.876800
352.843726,9885.103200,-2824.315200,1725.970400
352.844032,9963.556400,-2981.221600,2588.955600
352.844337,10042.009600,-3059.674800,2902.768400
352.844643,9963.556400,-2745.862000,2824.315200
352.844949,10042.009600,-2510.502400,2824.315200
352.845254,10277.369200,-2118.236400,2667.408800
352.845560,10277.369200,-1882.876800,2510.502400
352.845865,10120.462800,-1569.064000,2196.689600
352.846171,10042.009600,-1804.423600,1804.423600
352.846476,10042.009600,-1961.330000,1490.610800
352.846782,10120.462800,-2275.142800,1333.704400
352.847088,9885.103200,-2510.502400,1255.251200
352.847393,9571.290400,-2824.315200,1804.423600
352.847699,9649.743600,-2824.315200,1490.610800
352.848004,9806.650000,-2902.768400,1804.423600
352.848310,9885.103200,-2510.502400,1961.330000
352.848616,10591.182000,-2275.142800,1725.970400
352.848921,10277.369200,-1961.330000,1804.423600
352.849227,10120.462800,-1490.610800,1725.970400
352.849532,10042.009600,-1255.251200,1255.251200
352.849838,9728.196800,-1019.891600,706.078800
352.850143,9885.103200,-1098.344800,156.906400
352.850449,9963.556400,-1569.064000,235.359600
352.850755,9728.196800,-1882.876800,313.812800
352.851060,9806.650000,-2353.596000,470.719200
352.851366,10042.009600,-2510.502400,549.172400
352.851671,9885.103200,-2432.049200,235.359600
352.851977,10042.009600,-1882.876800,706.078800
352.852283,10277.369200,-1412.157600,470.719200
352.852588,10512.728800,-1019.891600,313.812800
352.852894,10277.369200,-706.078800,0.000000
352.853199,10198.916000,-784.532000,-235.359600
352.853505,10120.462800,-862.985200,-470.719200
352.853811,9963.556400,-862.985200,-313.812800
352.854116,9885.103200,-1333.704400,-470.719200
352.854422,9806.650000,-1804.423600,0.000000
352.854727,9414.384000,-1647.517200,0.000000
352.855033,9885.103200,-2196.689600,78.453200
352.855338,10198.916000,-1412.157600,0.000000
352.855644,9414.384000,-784.532000,235.359600
352.855950,10042.009600,-392.266000,235.359600
352.856255,10355.822400,549.172400,-470.719200
352.856561,10120.462800,0.000000,0.000000
352.856866,10120.462800,156.906400,-313.812800
352.857172,9885.103200,0.000000,0.000000
352.857478,9728.196800,-235.359600,-235.359600
352.857783,9885.103200,-549.172400,-235.359600
352.858089,9963.556400,-627.625600,0.000000
352.858394,9885.103200,-627.625600,-235.359600
352.858700,9963.556400,-313.812800,0.000000
352.859005,10042.009600,0.000000,-235.359600
352.859311,10120.462800,0.000000,0.000000
352.859617,10277.369200,313.812800,-392.266000
352.859922,10120.462800,78.453200,313.812800
352.860228,10198.916000,-235.359600,470.719200
352.860533,10042.009600,78.453200,470.719200
352.860839,9963.556400,156.906400,0.000000
352.861145,10042.009600,0.000000,0.000000
352.861450,9885.103200,78.453200,0.000000
352.861756,10042.009600,0.000000,0.000000
352.862061,9963.556400,-392.266000,0.000000
352.862367,10042.009600,-392.266000,0.000000
352.862673,10512.728800,-706.078800,156.906400
352.862978,9963.556400,0.000000,235.359600
352.863284,9963.556400,0.000000,0.000000
352.863589,10042.009600,0.000000,0.000000
352.863895,10042.009600,0.000000,78.453200
352.864200,10120.462800,0.000000,392.266000
352.864506,10198.916000,0.000000,78.453200
352.864812,10042.009600,0.000000,0.000000
352.865117,10042.009600,0.000000,0.000000
352.865423,9963.556400,0.000000,78.453200
352.865728,9963.556400,-156.906400,0.000000
352.866034,10434.275600,0.000000,470.719200
352.866340,10042.009600,0.000000,78.453200
352.866645,10042.009600,78.453200,235.359600
352.866951,10120.462800,313.812800,313.812800
352.867256,10042.009600,470.719200,0.000000
352.867562,10198.916000,549.172400,-549.172400
352.867867,9963.556400,235.359600,0.000000
352.868173,9963.556400,156.906400,0.000000
352.868479,10042.009600,0.000000,-156.906400
352.868784,10120.462800,0.000000,-235.359600
352.869090,10198.916000,313.812800,941.438400
352.869395,9885.103200,0.000000,0.000000
352.869701,10042.009600,78.453200,0.000000
352.870007,9963.556400,156.906400,0.000000
352.870312,9963.556400,313.812800,0.000000
352.870618,10198.916000,470.719200,-313.812800
352.870923,10042.009600,313.812800,156.906400
352.871229,9806.650000,313.812800,78.453200
352.871535,9885.103200,235.359600,235.359600
352.871840,9728.196800,235.359600,78.453200
352.872146,9963.556400,0.000000,0.000000
352.872451,9885.103200,235.359600,-78.453200
352.872757,10355.822400,-78.453200,313.812800
352.873062,10198.916000,313.812800,-78.453200
352.873368,10355.822400,156.906400,0.000000
352.873674,10042.009600,392.266000,0.000000
352.873979,10355.822400,0.000000,-784.532000
352.874285,9963.556400,235.359600,0.000000
352.874590,10042.009600,235.359600,0.000000
352.874896,10042.009600,78.453200,0.000000
352.875202,10042.009600,156.906400,-235.359600
352.875507,9963.556400,549.172400,-156.906400
352.875813,10042.009600,0.000000,0.000000
352.876118,9963.556400,0.000000,-235.359600
352.876424,10042.009600,0.000000,0.000000
352.876729,9963.556400,0.000000,0.000000
352.877035,9806.650000,706.078800,0.000000
352.877341,10198.916000,156.906400,-392.266000
352.877646,10042.009600,156.906400,0.000000
352.877952,10042.009600,78.453200,-156.906400
352.878257,9963.556400,235.359600,0.000000
352.878563,10042.009600,235.359600,78.453200
352.878869,10042.009600,0.000000,-313.812800
352.879174,10042.009600,0.000000,0.000000
352.879480,9806.650000,-156.906400,0.000000
352.879785,10042.009600,0.000000,78.453200
352.880091,9649.743600,235.359600,78.453200
352.880397,10042.009600,0.000000,0.000000
352.880702,9963.556400,0.000000,-313.812800
352.881008,9963.556400,235.359600,-156.906400
352.881313,10042.009600,235.359600,-235.359600
352.881619,9963.556400,0.000000,0.000000
352.881924,9963.556400,156.906400,-235.359600
352.882230,9963.556400,0.000000,-156.906400
352.882536,9963.556400,78.453200,0.000000
352.882841,10042.009600,78.453200,0.000000
352.883147,10042.009600,235.359600,235.359600
352.883452,10042.009600,78.453200,-156.906400
352.883758,10042.009600,392.266000,0.000000
352.884064,10042.009600,392.266000,0.000000
352.884369,10120.462800,235.359600,-313.812800
352.884675,9806.650000,0.000000,-706.078800
352.884980,9885.103200,313.812800,0.000000
352.885286,10042.009600,235.359600,-235.359600
352.885591,9728.196800,392.266000,-392.266000
352.885897,9963.556400,235.359600,-235.359600
352.886203,9963.556400,392.266000,-156.906400
352.886508,9806.650000,549.172400,0.000000
352.886814,9963.556400,235.359600,-235.359600
352.887119,9806.650000,470.719200,0.000000
352.887425,9885.103200,313.812800,-235.359600
352.887731,9885.103200,235.359600,-235.359600
352.888036,9885.103200,78.453200,0.000000
352.888342,9728.196800,235.359600,-156.906400
352.888647,9885.103200,0.000000,0.000000
352.888953,9728.196800,235.359600,-156.906400
352.889259,9806.650000,313.812800,-235.359600
352.889564,10277.369200,0.000000,0.000000
352.889870,10120.462800,156.906400,-156.906400
352.890175,10042.009600,78.453200,-156.906400
352.890481,9963.556400,156.906400,549.172400
352.890786,10591.182000,-627.625600,-156.906400
352.891092,9649.743600,1176.798000,-392.266000
352.891398,9492.837200,78.453200,784.532000
352.891703,11061.901200,-392.266000,156.906400
352.892009,10198.916000,0.000000,0.000000
352.892314,9885.103200,-235.359600,0.000000
352.892620,9806.650000,627.625600,156.906400
352.892926,9885.103200,78.453200,-313.812800
352.893231,9963.556400,0.000000,0.000000
352.893537,9963.556400,0.000000,0.000000
352.893842,9885.103200,78.453200,78.453200
352.894148,10042.009600,0.000000,0.000000
352.894453,10042.009600,235.359600,-156.906400
352.894759,9963.556400,0.000000,0.000000
352.895065,9885.103200,78.453200,-156.906400
352.895370,9963.556400,0.000000,0.000000
352.895676,9963.556400,0.000000,0.000000
352.895981,10355.822400,0.000000,0.000000
352.896287,9885.103200,0.000000,0.000000
352.896593,9728.196800,156.906400,0.000000
352.896898,10042.009600,0.000000,-78.453200
352.897204,9885.103200,235.359600,0.000000
352.897509,9963.556400,0.000000,78.453200
352.897815,10042.009600,0.000000,0.000000
352.898120,9963.556400,0.000000,0.000000
352.898426,9963.556400,0.000000,0.000000
352.898732,9963.556400,0.000000,0.000000
352.899037,10042.009600,235.359600,0.000000
352.899343,10042.009600,0.000000,-235.359600
352.899648,9885.103200,156.906400,0.000000
352.899954,10042.009600,156.906400,0.000000
352.900260,9963.556400,156.906400,0.000000
352.900565,9885.103200,78.453200,-784.532000
352.900871,10042.009600,313.812800,0.000000
352.901176,9963.556400,235.359600,0.000000
352.901482,10042.009600,0.000000,0.000000
352.901788,9963.556400,0.000000,0.000000
352.902093,10042.009600,78.453200,0.000000
352.902399,10042.009600,627.625600,0.000000
352.902704,9963.556400,156.906400,0.000000
352.903010,10042.009600,78.453200,0.000000
352.903315,10120.462800,0.000000,0.000000
352.903621,10120.462800,156.906400,-156.906400
352.903927,10042.009600,392.266000,-235.359600
352.904232,10042.009600,78.453200,0.000000
352.904538,9885.103200,78.453200,0.000000
352.904843,9885.103200,156.906400,0.000000
352.905149,9885.103200,78.453200,0.000000
352.905455,10120.462800,0.000000,0.000000
352.905760,9885.103200,0.000000,0.000000
352.906066,9963.556400,78.453200,0.000000
352.906371,9963.556400,156.906400,0.000000
352.906677,10042.009600,156.906400,-156.906400
352.906982,9806.650000,78.453200,470.719200
352.907288,10120.462800,0.000000,78.453200
352.907594,9885.103200,0.000000,0.000000
352.907899,9963.556400,0.000000,-235.359600
352.908205,10042.009600,0.000000,0.000000
352.908510,9963.556400,0.000000,0.000000
352.908816,10042.009600,0.000000,-706.078800
352.909122,9963.556400,0.000000,-627.625600
352.909427,9257.477600,78.453200,-78.453200
352.909733,10277.369200,-627.625600,-78.453200
352.910038,9963.556400,0.000000,156.906400
352.910344,10512.728800,0.000000,1804.423600
352.910650,10120.462800,0.000000,0.000000
352.910955,10042.009600,-156.906400,-235.359600
352.911261,10042.009600,0.000000,0.000000
352.911566,9963.556400,0.000000,-235.359600
352.911872,10277.369200,-392.266000,0.000000
352.912177,10042.009600,78.453200,0.000000
352.912483,10042.009600,0.000000,0.000000
352.912789,10042.009600,78.453200,78.453200
352.913094,9963.556400,0.000000,156.906400
352.913400,10120.462800,235.359600,313.812800
352.913705,10120.462800,0.000000,78.453200
352.914011,10042.009600,78.453200,78.453200
352.914317,10042.009600,78.453200,0.000000
352.914622,9963.556400,0.000000,0.000000
352.914928,10042.009600,-313.812800,235.359600
352.915233,9963.556400,0.000000,156.906400
352.915539,9963.556400,0.000000,0.000000
352.915844,9649.743600,0.000000,0.000000
352.916150,9963.556400,0.000000,0.000000
352.916456,10042.009600,313.812800,156.906400
352.916761,9885.103200,-235.359600,0.000000
352.917067,9885.103200,0.000000,78.453200
352.917372,10277.369200,0.000000,78.453200
352.917678,10042.009600,0.000000,156.906400
352.917984,10042.009600,78.453200,0.000000
352.918289,10120.462800,235.359600,0.000000
352.918595,10042.009600,0.000000,0.000000
352.918900,9885.103200,0.000000,0.000000
352.919206,10042.009600,0.000000,0.000000
352.919512,9885.103200,0.000000,0.000000
352.919817,10198.916000,-235.359600,235.359600
352.920123,10120.462800,78.453200,156.906400
352.920428,9963.556400,0.000000,0.000000
352.920734,9885.103200,0.000000,156.906400
352.921039,10042.009600,0.000000,156.906400
352.921345,10355.822400,-235.359600,313.812800
352.921651,9963.556400,-156.906400,0.000000
352.921956,9728.196800,-235.359600,0.000000
352.922262,9885.103200,0.000000,0.000000
352.922567,9963.556400,0.000000,0.000000
352.922873,9963.556400,0.000000,392.266000
352.923179,9885.103200,0.000000,156.906400
352.923484,9806.650000,0.000000,0.000000
352.923790,10042.009600,-156.906400,0.000000
352.924095,10120.462800,0.000000,78.453200
352.924401,9963.556400,0.000000,784.532000
352.924706,10042.009600,0.000000,156.906400
352.925012,9885.103200,-156.906400,313.812800
352.925318,10042.009600,-156.906400,0.000000
352.925623,10042.009600,-392.266000,0.000000
352.925929,9963.556400,0.000000,0.000000
352.926234,10042.009600,-235.359600,0.000000
352.926540,10120.462800,0.000000,-156.906400
352.926846,9963.556400,0.000000,549.172400
352.927151,10277.369200,78.453200,0.000000
352.927457,10042.009600,0.000000,78.453200
352.927762,10198.916000,0.000000,706.078800
352.928068,10434.275600,0.000000,78.453200
352.928374,9885.103200,-156.906400,156.906400
352.928679,9963.556400,0.000000,0.000000
352.928985,10042.009600,0.000000,0.000000
352.929290,10120.462800,-235.359600,235.359600
352.929596,10042.009600,0.000000,0.000000
352.929901,9963.556400,0.000000,0.000000
352.930207,10198.916000,-156.906400,156.906400
352.930513,10042.009600,0.000000,0.000000
352.930818,10277.369200,-156.906400,0.000000
352.931124,9885.103200,0.000000,235.359600
352.931429,9885.103200,0.000000,156.906400
352.931735,10042.009600,0.000000,0.000000
352.932041,9963.556400,-235.359600,156.906400
352.932346,10042.009600,0.000000,235.359600
352.932652,10042.009600,-235.359600,0.000000
352.932957,10042.009600,-313.812800,156.906400
352.933263,9963.556400,-156.906400,0.000000
352.933568,10042.009600,0.000000,0.000000
352.933874,10042.009600,0.000000,235.359600
352.934180,9806.650000,392.266000,0.000000
352.934485,9963.556400,-313.812800,0.000000
352.934791,10042.009600,0.000000,78.453200
352.935096,10042.009600,-313.812800,78.453200
352.935402,9963.556400,-156.906400,0.000000
352.935708,9806.650000,235.359600,0.000000
352.936013,9963.556400,0.000000,0.000000
